"FixdotCode","PulseDuration","ResponseCode","StopSignalCode","acc","accuracy","average_response_time","avg_rt","background","bidi","canvas_backend","clock_backend","color_backend","compensation","coordinates","coroutines_cycles","coroutines_duration","coroutines_mean_cycle_duration","correct","correct_instructions","correct_kb_response","correct_response","count_CodeSettings","count_ErrorFeedback","count_NoError","count_ResponseCalc","count_ResponseGiven","count_SetlinesZero","count_StartFixdot","count_StartStopsignal","count_StartTarget","count_about_this_example","count_blank","count_block_loop","count_experiment","count_finished","count_fixdot","count_instructions","count_kb_response","count_logger","count_new_advanced_delay","count_stop_signal","count_stop_signal_coroutines","count_target","count_trial_sequence","datetime","delay_new_advanced_delay","description","direction","disable_garbage_collection","experiment_file","experiment_path","font_bold","font_family","font_italic","font_size","font_underline","foreground","form_clicks","fullscreen","height","keyboard_backend","live_row","live_row_block_loop","logfile","mouse_backend","opensesame_codename","opensesame_version","repeat_cycle","response","response_finished","response_instructions","response_kb_response","response_target","response_time","response_time_finished","response_time_instructions","response_time_kb_response","response_time_target","round_decimals","sampler_backend","sound_buf_size","sound_channels","sound_freq","sound_sample_size","start","stop_after","stopcode","subject_nr","subject_parity","target","targetcode","time_CodeSettings","time_ErrorFeedback","time_NoError","time_ResponseCalc","time_ResponseGiven","time_SetlinesZero","time_StartFixdot","time_StartStopsignal","time_StartTarget","time_about_this_example","time_blank","time_block_loop","time_experiment","time_finished","time_fixdot","time_instructions","time_kb_response","time_logger","time_new_advanced_delay","time_stop_signal","time_target","time_trial_sequence","title","total_correct","total_response_time","total_responses","uniform_coordinates","width"
"1","10","133","255","100","100","455.59810000122525","455.59810000122525","black","no","psycho","psycho","psycho","0","uniform","11333","481.60359999747016","0.042495685166987575","1","undefined","1","left","0","0","0","0","0","1","0","NA","0","0","0","0","0","0","0","0","0","0","0","NA","0","0","0","Mon Nov 29 14:15:29 2021","316","Loosely based on Logan (1984) Journal of Experimental Psychology: Human Perception and Performance","1","yes","StopSignalTask.osexp","C:\Users\user\Documents\GitHub\StopTaskBCN","no","mono","no","18","no","white","no","yes","768","psycho","0","0","C:/Users/user/Documents/GitHub/StopTaskBCN/subject-2.csv","psycho","Lentiform Loewenfeld","3.3.9","0","left","NA","right","left","NA","455.59810000122525","NA","81248.35249999887","455.59810000122525","NA","2","psycho","1024","2","48000","-16","experiment","","0","2","even","left","2","84903.87750000082","NA","86088.44630000021","85911.37970000273","NA","NA","NA","NA","NA","NA","85955.09680000032","84903.91690000251","3604.854500001238","NA","85071.95150000189","3654.5808000009856","85455.31520000077","86990.78230000305","85072.21660000141","NA","85455.10980000108","85028.67170000172","Stop-Signal Task","1","455.59810000122525","1","yes","1024"
"1","10","138","255","50","50","443.8863000013953","443.8863000013953","black","no","psycho","psycho","psycho","0","uniform","8515","449.0122000024712","0.052731908397236786","0","undefined","0","None","0","1","1","1","1","2","1","NA","1","0","1","0","0","0","1","0","1","1","1","0","1","1","1","Mon Nov 29 14:15:29 2021","353","Loosely based on Logan (1984) Journal of Experimental Psychology: Human Perception and Performance","0","yes","StopSignalTask.osexp","C:\Users\user\Documents\GitHub\StopTaskBCN","no","mono","no","18","no","white","no","yes","768","psycho","1","1","C:/Users/user/Documents/GitHub/StopTaskBCN/subject-2.csv","psycho","Lentiform Loewenfeld","3.3.9","0","right","NA","right","right","NA","432.1745000015653","NA","81248.35249999887","432.1745000015653","NA","2","psycho","1024","2","48000","-16","experiment","50","8","2","even","right","9","84903.87750000082","88238.45900000015","86088.44630000021","88071.37320000038","NA","NA","NA","NA","NA","NA","88105.13290000017","84903.91690000251","3604.854500001238","NA","87221.97120000055","3654.5808000009856","87638.75090000147","89138.94570000048","87222.23470000245","87721.81679999994","87638.4816000027","87169.0656000028","Stop-Signal Task","1","887.7726000027906","2","yes","1024"
"1","10","133","255","66.66666666666667","66.66666666666667","417.1115000002222","417.1115000002222","black","no","psycho","psycho","psycho","0","uniform","9005","388.87569999860716","0.04318441976664155","1","undefined","1","left","0","2","2","2","2","3","2","NA","2","0","2","0","0","0","2","0","2","2","2","0","2","2","2","Mon Nov 29 14:15:29 2021","349","Loosely based on Logan (1984) Journal of Experimental Psychology: Human Perception and Performance","1","yes","StopSignalTask.osexp","C:\Users\user\Documents\GitHub\StopTaskBCN","no","mono","no","18","no","white","no","yes","768","psycho","2","2","C:/Users/user/Documents/GitHub/StopTaskBCN/subject-2.csv","psycho","Lentiform Loewenfeld","3.3.9","0","left","NA","right","left","NA","363.561899997876","NA","81248.35249999887","363.561899997876","NA","2","psycho","1024","2","48000","-16","experiment","","0","2","even","left","2","84903.87750000082","88238.45900000015","90305.25230000057","90119.37590000161","NA","NA","NA","NA","NA","NA","90155.20280000055","84903.91690000251","3604.854500001238","NA","89355.16110000026","3654.5808000009856","89755.34130000233","91216.06780000002","89355.38500000257","87721.81679999994","89755.13620000129","89310.37030000152","Stop-Signal Task","2","1251.3345000006666","3","yes","1024"
"1","10","133","255","75","75","462.9247000002579","462.9247000002579","black","no","psycho","psycho","psycho","0","uniform","14772","613.6860000005981","0.041543866775020186","1","undefined","1","left","0","3","3","3","3","4","3","NA","3","0","3","0","0","0","3","0","3","3","3","0","3","3","3","Mon Nov 29 14:15:29 2021","342","Loosely based on Logan (1984) Journal of Experimental Psychology: Human Perception and Performance","1","yes","StopSignalTask.osexp","C:\Users\user\Documents\GitHub\StopTaskBCN","no","mono","no","18","no","white","no","yes","768","psycho","3","3","C:/Users/user/Documents/GitHub/StopTaskBCN/subject-2.csv","psycho","Lentiform Loewenfeld","3.3.9","0","left","NA","right","left","NA","600.3643000003649","NA","81248.35249999887","600.3643000003649","NA","2","psycho","1024","2","48000","-16","experiment","","0","2","even","left","2","84903.87750000082","88238.45900000015","92605.28070000146","92439.37530000039","NA","NA","NA","NA","NA","NA","92471.79940000206","84903.91690000251","3604.854500001238","NA","91438.56560000131","3654.5808000009856","91838.54640000209","93506.53240000247","91438.78760000007","87721.81679999994","91838.48690000013","91387.1478000001","Stop-Signal Task","3","1851.6988000010315","4","yes","1024"
"1","10","131","255","80","80","459.3111400005","459.3111400005","black","no","psycho","psycho","psycho","0","uniform","10909","469.92189999946277","0.0430765331377269","1","undefined","1","right","0","4","4","4","4","5","4","NA","4","0","4","0","0","0","4","0","4","4","4","0","4","4","4","Mon Nov 29 14:15:29 2021","333","Loosely based on Logan (1984) Journal of Experimental Psychology: Human Perception and Performance","0","yes","StopSignalTask.osexp","C:\Users\user\Documents\GitHub\StopTaskBCN","no","mono","no","18","no","white","no","yes","768","psycho","4","4","C:/Users/user/Documents/GitHub/StopTaskBCN/subject-2.csv","psycho","Lentiform Loewenfeld","3.3.9","0","right","NA","right","right","NA","444.8569000014686","NA","81248.35249999887","444.8569000014686","NA","2","psycho","1024","2","48000","-16","experiment","","0","2","even","right","8","84903.87750000082","88238.45900000015","94738.5006000004","94567.38620000033","NA","NA","NA","NA","NA","NA","94605.3344000029","84903.91690000251","3604.854500001238","NA","93738.534600001","3654.5808000009856","94122.04209999982","95632.12879999992","93738.60500000228","87721.81679999994","94121.83900000309","93697.62869999977","Stop-Signal Task","4","2296.5557000025","5","yes","1024"
"1","10","131","255","83.33333333333333","83.33333333333333","463.6767000004814","463.6767000004814","black","no","psycho","psycho","psycho","0","uniform","11782","505.9655000004568","0.04294393990837352","1","undefined","1","right","0","5","5","5","5","6","5","NA","5","0","5","0","0","0","5","0","5","5","5","0","5","5","5","Mon Nov 29 14:15:29 2021","393","Loosely based on Logan (1984) Journal of Experimental Psychology: Human Perception and Performance","0","yes","StopSignalTask.osexp","C:\Users\user\Documents\GitHub\StopTaskBCN","no","mono","no","18","no","white","no","yes","768","psycho","5","5","C:/Users/user/Documents/GitHub/StopTaskBCN/subject-2.csv","psycho","Lentiform Loewenfeld","3.3.9","0","right","NA","right","right","NA","485.50450000038836","NA","81248.35249999887","485.50450000038836","NA","2","psycho","1024","2","48000","-16","experiment","","0","2","even","right","8","84903.87750000082","88238.45900000015","96971.85449999961","96791.43400000248","NA","NA","NA","NA","NA","NA","96838.53360000285","84903.91690000251","3604.854500001238","NA","95855.20600000018","3654.5808000009856","96305.37480000203","97876.71300000147","95855.2742000029","87721.81679999994","96305.1704999998","95816.24870000087","Stop-Signal Task","5","2782.0602000028885","6","yes","1024"
"1","10","133","255","85.71428571428571","85.71428571428571","488.696728571605","488.696728571605","black","no","psycho","psycho","psycho","0","uniform","15798","658.9229000019259","0.04170926066602899","1","undefined","1","left","0","6","6","6","6","7","6","NA","6","0","6","0","0","0","6","0","6","6","6","0","6","6","6","Mon Nov 29 14:15:29 2021","317","Loosely based on Logan (1984) Journal of Experimental Psychology: Human Perception and Performance","1","yes","StopSignalTask.osexp","C:\Users\user\Documents\GitHub\StopTaskBCN","no","mono","no","18","no","white","no","yes","768","psycho","6","6","C:/Users/user/Documents/GitHub/StopTaskBCN/subject-2.csv","psycho","Lentiform Loewenfeld","3.3.9","0","left","NA","right","left","NA","638.8168999983463","NA","81248.35249999887","638.8168999983463","NA","2","psycho","1024","2","48000","-16","experiment","","0","2","even","left","2","84903.87750000082","88238.45900000015","99288.5148000023","99111.36550000083","NA","NA","NA","NA","NA","NA","99155.20830000241","84903.91690000251","3604.854500001238","NA","98105.24540000188","3654.5808000009856","98472.05640000175","100194.02710000213","98105.32460000104","87721.81679999994","98471.84620000189","98067.30660000176","Stop-Signal Task","6","3420.877100001235","7","yes","1024"
"1","10","133","255","87.5","87.5","507.79073750027237","507.79073750027237","black","no","psycho","psycho","psycho","0","uniform","15765","662.9539000023215","0.04205226133855512","1","undefined","1","left","0","7","7","7","7","8","7","NA","7","0","7","0","0","0","7","0","7","7","7","0","7","7","7","Mon Nov 29 14:15:29 2021","317","Loosely based on Logan (1984) Journal of Experimental Psychology: Human Perception and Performance","1","yes","StopSignalTask.osexp","C:\Users\user\Documents\GitHub\StopTaskBCN","no","mono","no","18","no","white","no","yes","768","psycho","7","7","C:/Users/user/Documents/GitHub/StopTaskBCN/subject-2.csv","psycho","Lentiform Loewenfeld","3.3.9","0","left","NA","right","left","NA","641.4488000009442","NA","81248.35249999887","641.4488000009442","NA","2","psycho","1024","2","48000","-16","experiment","","0","2","even","left","2","84903.87750000082","88238.45900000015","101621.88610000157","101447.39540000228","NA","NA","NA","NA","NA","NA","101488.55360000016","84903.91690000251","3604.854500001238","NA","100438.63229999988","3654.5808000009856","100805.39549999958","102523.54060000289","100438.86650000059","87721.81679999994","100805.194200002","100386.08380000005","Stop-Signal Task","7","4062.325900002179","8","yes","1024"
"1","10","133","255","88.88888888888889","88.88888888888889","499.8360555558368","499.8360555558368","black","no","psycho","psycho","psycho","0","uniform","10755","461.03669999865815","0.0428671966525949","1","undefined","1","left","0","8","8","8","8","9","8","NA","8","0","8","0","0","0","8","0","8","8","8","0","8","8","8","Mon Nov 29 14:15:29 2021","352","Loosely based on Logan (1984) Journal of Experimental Psychology: Human Perception and Performance","1","yes","StopSignalTask.osexp","C:\Users\user\Documents\GitHub\StopTaskBCN","no","mono","no","18","no","white","no","yes","768","psycho","8","8","C:/Users/user/Documents/GitHub/StopTaskBCN/subject-2.csv","psycho","Lentiform Loewenfeld","3.3.9","0","left","NA","right","left","NA","436.1986000003526","NA","81248.35249999887","436.1986000003526","NA","2","psycho","1024","2","48000","-16","experiment","","0","2","even","left","2","84903.87750000082","88238.45900000015","103755.23170000088","103575.4900000029","NA","NA","NA","NA","NA","NA","103621.906700002","84903.91690000251","3604.854500001238","NA","102738.57870000211","3654.5808000009856","103138.7762000013","104648.4182000022","102738.80080000163","87721.81679999994","103138.57300000018","102696.06000000203","Stop-Signal Task","8","4498.524500002532","9","yes","1024"
"1","10","131","255","90","90","497.9440200000681","497.9440200000681","black","no","psycho","psycho","psycho","0","uniform","11881","493.9632999994501","0.04157590270174649","1","undefined","1","right","0","9","9","9","9","10","9","NA","9","0","9","0","0","0","9","0","9","9","9","0","9","9","9","Mon Nov 29 14:15:29 2021","304","Loosely based on Logan (1984) Journal of Experimental Psychology: Human Perception and Performance","0","yes","StopSignalTask.osexp","C:\Users\user\Documents\GitHub\StopTaskBCN","no","mono","no","18","no","white","no","yes","768","psycho","9","9","C:/Users/user/Documents/GitHub/StopTaskBCN/subject-2.csv","psycho","Lentiform Loewenfeld","3.3.9","0","right","NA","right","right","NA","480.91569999814965","NA","81248.35249999887","480.91569999814965","NA","2","psycho","1024","2","48000","-16","experiment","","0","2","even","right","8","84903.87750000082","88238.45900000015","105888.6803000023","105703.8121000005","NA","NA","NA","NA","NA","NA","105738.59450000236","84903.91690000251","3604.854500001238","NA","104871.97600000218","3654.5808000009856","105221.94180000224","106788.880600001","104872.28790000154","87721.81679999994","105221.88860000097","104823.42650000282","Stop-Signal Task","9","4979.440200000681","10","yes","1024"
"1","10","131","255","90.9090909090909","90.9090909090909","503.0462454547391","503.0462454547391","black","no","psycho","psycho","psycho","0","uniform","13536","578.9293000016187","0.042769599586408","1","undefined","1","right","0","10","10","10","10","11","10","NA","10","0","10","0","0","0","10","0","10","10","10","0","10","10","10","Mon Nov 29 14:15:29 2021","331","Loosely based on Logan (1984) Journal of Experimental Psychology: Human Perception and Performance","0","yes","StopSignalTask.osexp","C:\Users\user\Documents\GitHub\StopTaskBCN","no","mono","no","18","no","white","no","yes","768","psycho","10","10","C:/Users/user/Documents/GitHub/StopTaskBCN/subject-2.csv","psycho","Lentiform Loewenfeld","3.3.9","0","right","NA","right","right","NA","554.0685000014491","NA","81248.35249999887","554.0685000014491","NA","2","psycho","1024","2","48000","-16","experiment","","0","2","even","right","8","84903.87750000082","88238.45900000015","108121.93079999997","107943.35290000163","NA","NA","NA","NA","NA","NA","107988.60010000135","84903.91690000251","3604.854500001238","NA","107005.32560000283","3654.5808000009856","107388.78699999987","109011.90880000286","107005.5398000004","87721.81679999994","107388.59240000238","106952.78990000224","Stop-Signal Task","10","5533.50870000213","11","yes","1024"
"1","10","131","255","91.66666666666667","91.66666666666667","521.2317166669891","521.2317166669891","black","no","psycho","psycho","psycho","0","uniform","17432","738.4387999991304","0.04236110601188219","1","undefined","1","right","0","11","11","11","11","12","11","NA","11","0","11","0","0","0","11","0","11","11","11","0","11","11","11","Mon Nov 29 14:15:29 2021","311","Loosely based on Logan (1984) Journal of Experimental Psychology: Human Perception and Performance","0","yes","StopSignalTask.osexp","C:\Users\user\Documents\GitHub\StopTaskBCN","no","mono","no","18","no","white","no","yes","768","psycho","11","11","C:/Users/user/Documents/GitHub/StopTaskBCN/subject-2.csv","psycho","Lentiform Loewenfeld","3.3.9","0","right","NA","right","right","NA","721.2719000017387","NA","81248.35249999887","721.2719000017387","NA","2","psycho","1024","2","48000","-16","experiment","","0","2","even","right","8","84903.87750000082","88238.45900000015","110505.27789999978","110327.53500000035","NA","NA","NA","NA","NA","NA","110371.9482000015","84903.91690000251","3604.854500001238","NA","109221.96610000174","3654.5808000009856","109605.58010000022","111408.38260000237","109222.18140000041","87721.81679999994","109605.3000000029","109177.435900001","Stop-Signal Task","11","6254.780600003869","12","yes","1024"
"1","10","133","255","92.3076923076923","92.3076923076923","513.0882461540191","513.0882461540191","black","no","psycho","psycho","psycho","0","uniform","10239","440.9218000000692","0.043062974899899326","1","undefined","1","left","0","12","12","12","12","13","12","NA","12","0","12","0","0","0","12","0","12","12","12","0","12","12","12","Mon Nov 29 14:15:29 2021","363","Loosely based on Logan (1984) Journal of Experimental Psychology: Human Perception and Performance","1","yes","StopSignalTask.osexp","C:\Users\user\Documents\GitHub\StopTaskBCN","no","mono","no","18","no","white","no","yes","768","psycho","12","12","C:/Users/user/Documents/GitHub/StopTaskBCN/subject-2.csv","psycho","Lentiform Loewenfeld","3.3.9","0","left","NA","right","left","NA","415.36659999837866","NA","81248.35249999887","415.36659999837866","NA","2","psycho","1024","2","48000","-16","experiment","","0","2","even","left","2","84903.87750000082","88238.45900000015","112638.61250000264","112471.36239999963","NA","NA","NA","NA","NA","NA","112505.27789999978","84903.91690000251","3604.854500001238","NA","111638.67500000197","3654.5808000009856","112055.49800000153","113538.40100000161","111638.76390000223","87721.81679999994","112055.2932999999","111596.4684999999","Stop-Signal Task","12","6670.147200002248","13","yes","1024"
"1","10","133","255","92.85714285714286","92.85714285714286","511.44773571442266","511.44773571442266","black","no","psycho","psycho","psycho","0","uniform","12158","502.97300000238465","0.0413697154139155","1","undefined","1","left","0","13","13","13","13","14","13","NA","13","0","13","0","0","0","13","0","13","13","13","0","13","13","13","Mon Nov 29 14:15:29 2021","373","Loosely based on Logan (1984) Journal of Experimental Psychology: Human Perception and Performance","1","yes","StopSignalTask.osexp","C:\Users\user\Documents\GitHub\StopTaskBCN","no","mono","no","18","no","white","no","yes","768","psycho","13","13","C:/Users/user/Documents/GitHub/StopTaskBCN/subject-2.csv","psycho","Lentiform Loewenfeld","3.3.9","0","left","NA","right","left","NA","490.12109999966924","NA","81248.35249999887","490.12109999966924","NA","2","psycho","1024","2","48000","-16","experiment","","0","2","even","left","2","84903.87750000082","88238.45900000015","114855.31199999969","114679.35299999954","NA","NA","NA","NA","NA","NA","114721.98810000191","84903.91690000251","3604.854500001238","NA","113772.02540000144","3654.5808000009856","114188.68070000099","115766.96770000126","113772.29340000122","87721.81679999994","114188.62509999963","113719.49470000254","Stop-Signal Task","13","7160.268300001917","14","yes","1024"
"1","10","131","255","93.33333333333333","93.33333333333333","513.7565466669912","513.7565466669912","black","no","psycho","psycho","psycho","0","uniform","13505","561.9910999994318","0.04161355794146107","1","undefined","1","right","0","14","14","14","14","15","14","NA","14","0","14","0","0","0","14","0","14","14","14","0","14","14","14","Mon Nov 29 14:15:29 2021","345","Loosely based on Logan (1984) Journal of Experimental Psychology: Human Perception and Performance","0","yes","StopSignalTask.osexp","C:\Users\user\Documents\GitHub\StopTaskBCN","no","mono","no","18","no","white","no","yes","768","psycho","14","14","C:/Users/user/Documents/GitHub/StopTaskBCN/subject-2.csv","psycho","Lentiform Loewenfeld","3.3.9","0","right","NA","right","right","NA","546.079900002951","NA","81248.35249999887","546.079900002951","NA","2","psycho","1024","2","48000","-16","experiment","","0","2","even","right","8","84903.87750000082","88238.45900000015","117105.32840000087","116935.3454000011","NA","NA","NA","NA","NA","NA","116971.97020000021","84903.91690000251","3604.854500001238","NA","115988.70790000001","3654.5808000009856","116388.73349999994","118010.56890000109","115988.92760000308","87721.81679999994","116388.67400000163","115944.69519999984","Stop-Signal Task","14","7706.348200004868","15","yes","1024"
"1","10","133","255","93.75","93.75","523.2678937502442","523.2678937502442","black","no","psycho","psycho","psycho","0","uniform","16411","684.6860999976343","0.041721168728147844","1","undefined","1","left","0","15","15","15","15","16","15","NA","15","0","15","0","0","0","15","0","15","15","15","0","15","15","15","Mon Nov 29 14:15:29 2021","314","Loosely based on Logan (1984) Journal of Experimental Psychology: Human Perception and Performance","1","yes","StopSignalTask.osexp","C:\Users\user\Documents\GitHub\StopTaskBCN","no","mono","no","18","no","white","no","yes","768","psycho","15","15","C:/Users/user/Documents/GitHub/StopTaskBCN/subject-2.csv","psycho","Lentiform Loewenfeld","3.3.9","0","left","NA","right","left","NA","665.938099999039","NA","81248.35249999887","665.938099999039","NA","2","psycho","1024","2","48000","-16","experiment","","0","2","even","left","2","84903.87750000082","88238.45900000015","119422.00610000145","119255.36140000258","NA","NA","NA","NA","NA","NA","119288.66060000291","84903.91690000251","3604.854500001238","NA","118222.13420000116","3654.5808000009856","118588.86630000052","120314.99389999954","118222.51370000231","87721.81679999994","118588.67140000075","118178.44859999968","Stop-Signal Task","15","8372.286300003907","16","yes","1024"
"1","10","131","255","94.11764705882354","94.11764705882354","530.019200000157","530.019200000157","black","no","psycho","psycho","psycho","0","uniform","15691","648.9194999994652","0.04135615958189186","1","undefined","1","right","0","16","16","16","16","17","16","NA","16","0","16","0","0","0","16","0","16","16","16","0","16","16","16","Mon Nov 29 14:15:29 2021","319","Loosely based on Logan (1984) Journal of Experimental Psychology: Human Perception and Performance","0","yes","StopSignalTask.osexp","C:\Users\user\Documents\GitHub\StopTaskBCN","no","mono","no","18","no","white","no","yes","768","psycho","16","16","C:/Users/user/Documents/GitHub/StopTaskBCN/subject-2.csv","psycho","Lentiform Loewenfeld","3.3.9","0","right","NA","right","right","NA","638.0400999987614","NA","81248.35249999887","638.0400999987614","NA","2","psycho","1024","2","48000","-16","experiment","","0","2","even","right","8","84903.87750000082","88238.45900000015","121705.36040000297","121527.3214000008","NA","NA","NA","NA","NA","NA","121572.01329999953","84903.91690000251","3604.854500001238","NA","120538.69850000046","3654.5808000009856","120888.7461000013","122599.26819999964","120538.91690000091","87721.81679999994","120888.69049999994","120490.29050000172","Stop-Signal Task","16","9010.326400002668","17","yes","1024"
"1","10","141","255","94.44444444444444","94.44444444444444","611.1316777779494","611.1316777779494","black","no","psycho","psycho","psycho","0","uniform","46305","2000.01390000034","0.04319218011014664","1","undefined","1","None","0","17","17","17","17","18","17","NA","17","0","17","0","0","0","17","0","17","17","17","1","17","17","17","Mon Nov 29 14:15:29 2021","316","Loosely based on Logan (1984) Journal of Experimental Psychology: Human Perception and Performance","1","yes","StopSignalTask.osexp","C:\Users\user\Documents\GitHub\StopTaskBCN","no","mono","no","18","no","white","no","yes","768","psycho","17","17","C:/Users/user/Documents/GitHub/StopTaskBCN/subject-2.csv","psycho","Lentiform Loewenfeld","3.3.9","0","None","NA","right","None","NA","1990.0438000004215","NA","81248.35249999887","1990.0438000004215","NA","2","psycho","1024","2","48000","-16","experiment","100","8","2","even","left","4","84903.87750000082","88238.45900000015","125322.05670000258","125179.07800000103","NA","NA","NA","NA","NA","NA","125188.71240000226","84903.91690000251","3604.854500001238","NA","122822.11160000224","3654.5808000009856","123188.73180000082","126224.06030000275","122822.20450000023","123305.39900000076","123188.67800000226","122782.73439999975","Stop-Signal Task","17","11000.37020000309","18","yes","1024"
"1","10","131","255","94.73684210526316","94.73684210526316","605.8711105265262","605.8711105265262","black","no","psycho","psycho","psycho","0","uniform","12564","536.9576000011875","0.04273779051267013","1","undefined","1","right","0","18","18","18","18","19","18","NA","18","0","18","0","0","0","18","0","18","18","18","1","18","18","18","Mon Nov 29 14:15:29 2021","348","Loosely based on Logan (1984) Journal of Experimental Psychology: Human Perception and Performance","0","yes","StopSignalTask.osexp","C:\Users\user\Documents\GitHub\StopTaskBCN","no","mono","no","18","no","white","no","yes","768","psycho","18","18","C:/Users/user/Documents/GitHub/StopTaskBCN/subject-2.csv","psycho","Lentiform Loewenfeld","3.3.9","0","right","NA","right","right","NA","511.1809000009089","NA","81248.35249999887","511.1809000009089","NA","2","psycho","1024","2","48000","-16","experiment","","0","2","even","right","8","84903.87750000082","88238.45900000015","127538.72970000157","127367.36810000002","NA","NA","NA","NA","NA","NA","127405.38820000074","84903.91690000251","3604.854500001238","NA","126455.41460000095","3654.5808000009856","126855.65510000015","128431.59899999955","126455.48580000104","123305.39900000076","126855.43400000097","126418.24090000227","Stop-Signal Task","18","11511.551100003999","19","yes","1024"
"1","10","133","255","95","95","622.3623300002146","622.3623300002146","black","no","psycho","psycho","psycho","0","uniform","22322","952.0664999981818","0.04265148732184311","1","undefined","1","left","0","19","19","19","19","20","19","NA","19","0","19","0","0","0","19","0","19","19","19","1","19","19","19","Mon Nov 29 14:15:29 2021","334","Loosely based on Logan (1984) Journal of Experimental Psychology: Human Perception and Performance","1","yes","StopSignalTask.osexp","C:\Users\user\Documents\GitHub\StopTaskBCN","no","mono","no","18","no","white","no","yes","768","psycho","19","19","C:/Users/user/Documents/GitHub/StopTaskBCN/subject-2.csv","psycho","Lentiform Loewenfeld","3.3.9","0","left","NA","right","left","NA","935.6955000002927","NA","81248.35249999887","935.6955000002927","NA","2","psycho","1024","2","48000","-16","experiment","","0","2","even","left","2","84903.87750000082","88238.45900000015","130155.45360000033","129975.39810000308","NA","NA","NA","NA","NA","NA","130022.23050000248","84903.91690000251","3604.854500001238","NA","128655.47540000262","3654.5808000009856","129039.16070000196","131056.43670000063","128655.56250000009","123305.39900000076","129039.0049000016","128614.83200000293","Stop-Signal Task","19","12447.246600004291","20","yes","1024"
"1","10","131","255","95.23809523809524","95.23809523809524","622.3344047622439","622.3344047622439","black","no","psycho","psycho","psycho","0","uniform","15310","631.9666000017605","0.04127802743316528","1","undefined","1","right","0","20","20","20","20","21","20","NA","20","0","20","0","0","0","20","0","20","20","20","1","20","20","20","Mon Nov 29 14:15:29 2021","396","Loosely based on Logan (1984) Journal of Experimental Psychology: Human Perception and Performance","0","yes","StopSignalTask.osexp","C:\Users\user\Documents\GitHub\StopTaskBCN","no","mono","no","18","no","white","no","yes","768","psycho","20","20","C:/Users/user/Documents/GitHub/StopTaskBCN/subject-2.csv","psycho","Lentiform Loewenfeld","3.3.9","0","right","NA","right","right","NA","621.7759000028309","NA","81248.35249999887","621.7759000028309","NA","2","psycho","1024","2","48000","-16","experiment","","0","2","even","right","8","84903.87750000082","88238.45900000015","132488.7474999996","132311.32330000037","NA","NA","NA","NA","NA","NA","132355.45679999996","84903.91690000251","3604.854500001238","NA","131255.43839999955","3654.5808000009856","131688.9744","133384.38479999968","131255.50620000286","123305.39900000076","131688.9181000006","131219.08090000215","Stop-Signal Task","20","13069.022500007122","21","yes","1024"
"1","10","131","255","95.45454545454545","95.45454545454545","626.8601909095279","626.8601909095279","black","no","psycho","psycho","psycho","0","uniform","17914","733.8187999994261","0.040963425253959254","1","undefined","1","right","0","21","21","21","21","22","21","NA","21","0","21","0","0","0","21","0","21","21","21","1","21","21","21","Mon Nov 29 14:15:29 2021","366","Loosely based on Logan (1984) Journal of Experimental Psychology: Human Perception and Performance","0","yes","StopSignalTask.osexp","C:\Users\user\Documents\GitHub\StopTaskBCN","no","mono","no","18","no","white","no","yes","768","psycho","21","21","C:/Users/user/Documents/GitHub/StopTaskBCN/subject-2.csv","psycho","Lentiform Loewenfeld","3.3.9","0","right","NA","right","right","NA","721.9017000024905","NA","81248.35249999887","721.9017000024905","NA","2","psycho","1024","2","48000","-16","experiment","","0","2","even","right","8","84903.87750000082","88238.45900000015","134888.785500003","134711.36470000056","NA","NA","NA","NA","NA","NA","134755.436200001","84903.91690000251","3604.854500001238","NA","133588.7853000022","3654.5808000009856","133988.83360000036","135790.4963000001","133588.85180000289","123305.39900000076","133988.77840000205","133549.8041000028","Stop-Signal Task","21","13790.924200009613","22","yes","1024"
"1","10","133","255","95.65217391304348","95.65217391304348","630.9344173917096","630.9344173917096","black","no","psycho","psycho","psycho","0","uniform","17731","730.9827999997651","0.04122625909422847","1","undefined","1","left","0","22","22","22","22","23","22","NA","22","0","22","0","0","0","22","0","22","22","22","1","22","22","22","Mon Nov 29 14:15:29 2021","386","Loosely based on Logan (1984) Journal of Experimental Psychology: Human Perception and Performance","1","yes","StopSignalTask.osexp","C:\Users\user\Documents\GitHub\StopTaskBCN","no","mono","no","18","no","white","no","yes","768","psycho","22","22","C:/Users/user/Documents/GitHub/StopTaskBCN/subject-2.csv","psycho","Lentiform Loewenfeld","3.3.9","0","left","NA","right","left","NA","720.5673999997089","NA","81248.35249999887","720.5673999997089","NA","2","psycho","1024","2","48000","-16","experiment","","0","2","even","left","2","84903.87750000082","88238.45900000015","137322.13050000064","137143.30250000057","NA","NA","NA","NA","NA","NA","137188.80200000058","84903.91690000251","3604.854500001238","NA","136005.48020000133","3654.5808000009856","136422.1675000008","138212.17830000023","136005.70309999966","123305.39900000076","136422.11450000104","135962.57740000146","Stop-Signal Task","22","14511.491600009322","23","yes","1024"
"1","10","131","255","95.83333333333333","95.83333333333333","628.024354167034","628.024354167034","black","no","psycho","psycho","psycho","0","uniform","13886","580.0146000001405","0.041769739305785716","1","undefined","1","right","0","23","23","23","23","24","23","NA","23","0","23","0","0","0","23","0","23","23","23","1","23","23","23","Mon Nov 29 14:15:29 2021","306","Loosely based on Logan (1984) Journal of Experimental Psychology: Human Perception and Performance","0","yes","StopSignalTask.osexp","C:\Users\user\Documents\GitHub\StopTaskBCN","no","mono","no","18","no","white","no","yes","768","psycho","23","23","C:/Users/user/Documents/GitHub/StopTaskBCN/subject-2.csv","psycho","Lentiform Loewenfeld","3.3.9","0","right","NA","right","right","NA","561.092899999494","NA","81248.35249999887","561.092899999494","NA","2","psycho","1024","2","48000","-16","experiment","","0","2","even","right","8","84903.87750000082","88238.45900000015","139538.7941000008","139367.32210000264","NA","NA","NA","NA","NA","NA","139405.50390000135","84903.91690000251","3604.854500001238","NA","138455.48300000155","3654.5808000009856","138805.65730000308","140435.9347000027","138455.701400002","123305.39900000076","138805.45710000297","138398.1300000014","Stop-Signal Task","23","15072.584500008816","24","yes","1024"
"1","10","131","255","96","96","628.1408280003234","628.1408280003234","black","no","psycho","psycho","psycho","0","uniform","15414","649.0016999996442","0.04210469054104348","1","undefined","1","right","0","24","24","24","24","25","24","NA","24","0","24","0","0","0","24","0","24","24","24","1","24","24","24","Mon Nov 29 14:15:29 2021","344","Loosely based on Logan (1984) Journal of Experimental Psychology: Human Perception and Performance","0","yes","StopSignalTask.osexp","C:\Users\user\Documents\GitHub\StopTaskBCN","no","mono","no","18","no","white","no","yes","768","psycho","24","24","C:/Users/user/Documents/GitHub/StopTaskBCN/subject-2.csv","psycho","Lentiform Loewenfeld","3.3.9","0","right","NA","right","right","NA","630.9361999992689","NA","81248.35249999887","630.9361999992689","NA","2","psycho","1024","2","48000","-16","experiment","","0","2","even","right","8","84903.87750000082","88238.45900000015","141855.4667999997","141687.3480000031","NA","NA","NA","NA","NA","NA","141722.15610000057","84903.91690000251","3604.854500001238","NA","140655.52160000152","3654.5808000009856","141055.8450000026","142759.0388000026","140655.73710000172","123305.39900000076","141055.56200000137","140607.60120000123","Stop-Signal Task","24","15703.520700008085","25","yes","1024"
"1","10","133","255","96.15384615384616","96.15384615384616","627.0430384618242","627.0430384618242","black","no","psycho","psycho","psycho","0","uniform","14665","624.8760999988008","0.04261003068522337","1","undefined","1","left","0","25","25","25","25","26","25","NA","25","0","25","0","0","0","25","0","25","25","25","1","25","25","25","Mon Nov 29 14:15:29 2021","397","Loosely based on Logan (1984) Journal of Experimental Psychology: Human Perception and Performance","1","yes","StopSignalTask.osexp","C:\Users\user\Documents\GitHub\StopTaskBCN","no","mono","no","18","no","white","no","yes","768","psycho","25","25","C:/Users/user/Documents/GitHub/StopTaskBCN/subject-2.csv","psycho","Lentiform Loewenfeld","3.3.9","0","left","NA","right","left","NA","599.598299999343","NA","81248.35249999887","599.598299999343","NA","2","psycho","1024","2","48000","-16","experiment","","0","2","even","left","2","84903.87750000082","88238.45900000015","144222.1666000005","144039.35600000113","NA","NA","NA","NA","NA","NA","144088.85350000128","84903.91690000251","3604.854500001238","NA","142988.9331000013","3654.5808000009856","143439.18440000198","145121.5854000002","142989.25450000024","123305.39900000076","143438.92130000313","142945.79870000234","Stop-Signal Task","25","16303.119000007428","26","yes","1024"
"1","10","131","255","96.29629629629629","96.29629629629629","629.7578074076295","629.7578074076295","black","no","psycho","psycho","psycho","0","uniform","17285","726.0592999991786","0.042005166329139636","1","undefined","1","right","0","26","26","26","26","27","26","NA","26","0","26","0","0","0","26","0","26","26","26","1","26","26","26","Mon Nov 29 14:15:29 2021","324","Loosely based on Logan (1984) Journal of Experimental Psychology: Human Perception and Performance","0","yes","StopSignalTask.osexp","C:\Users\user\Documents\GitHub\StopTaskBCN","no","mono","no","18","no","white","no","yes","768","psycho","26","26","C:/Users/user/Documents/GitHub/StopTaskBCN/subject-2.csv","psycho","Lentiform Loewenfeld","3.3.9","0","right","NA","right","right","NA","700.3417999985686","NA","81248.35249999887","700.3417999985686","NA","2","psycho","1024","2","48000","-16","experiment","","0","2","even","right","8","84903.87750000082","88238.45900000015","146605.5281000008","146423.3544000017","NA","NA","NA","NA","NA","NA","146472.20120000202","84903.91690000251","3604.854500001238","NA","145355.55620000014","3654.5808000009856","145722.4047000018","147504.6867000019","145355.62980000032","123305.39900000076","145722.19530000075","145317.55120000162","Stop-Signal Task","26","17003.460800005996","27","yes","1024"
"1","10","133","255","96.42857142857143","96.42857142857143","635.6385714287691","635.6385714287691","black","no","psycho","psycho","psycho","0","uniform","19571","806.8554000019503","0.041227091104284415","1","undefined","1","left","0","27","27","27","27","28","27","NA","27","0","27","0","0","0","27","0","27","27","27","1","27","27","27","Mon Nov 29 14:15:29 2021","392","Loosely based on Logan (1984) Journal of Experimental Psychology: Human Perception and Performance","1","yes","StopSignalTask.osexp","C:\Users\user\Documents\GitHub\StopTaskBCN","no","mono","no","18","no","white","no","yes","768","psycho","27","27","C:/Users/user/Documents/GitHub/StopTaskBCN/subject-2.csv","psycho","Lentiform Loewenfeld","3.3.9","0","left","NA","right","left","NA","794.4191999995383","NA","81248.35249999887","794.4191999995383","NA","2","psycho","1024","2","48000","-16","experiment","","0","2","even","left","2","84903.87750000082","88238.45900000015","149138.8579000013","148967.35960000296","NA","NA","NA","NA","NA","NA","149005.53010000294","84903.91690000251","3604.854500001238","NA","147738.89899999995","3654.5808000009856","148172.29750000115","150046.04400000244","147739.12410000048","123305.39900000076","148172.23469999954","147687.47820000135","Stop-Signal Task","27","17797.880000005534","28","yes","1024"
"1","10","133","255","96.55172413793103","96.55172413793103","636.678251724365","636.678251724365","black","no","psycho","psycho","psycho","0","uniform","16427","676.0498000003281","0.04115479393683132","1","undefined","1","left","0","28","28","28","28","29","28","NA","28","0","28","0","0","0","28","0","28","28","28","1","28","28","28","Mon Nov 29 14:15:29 2021","305","Loosely based on Logan (1984) Journal of Experimental Psychology: Human Perception and Performance","1","yes","StopSignalTask.osexp","C:\Users\user\Documents\GitHub\StopTaskBCN","no","mono","no","18","no","white","no","yes","768","psycho","28","28","C:/Users/user/Documents/GitHub/StopTaskBCN/subject-2.csv","psycho","Lentiform Loewenfeld","3.3.9","0","left","NA","right","left","NA","665.7893000010517","NA","81248.35249999887","665.7893000010517","NA","2","psycho","1024","2","48000","-16","experiment","","0","2","even","left","2","84903.87750000082","88238.45900000015","151422.23150000063","151255.33550000182","NA","NA","NA","NA","NA","NA","151288.87899999972","84903.91690000251","3604.854500001238","NA","150255.58410000303","3654.5808000009856","150588.9590000006","152324.8631000024","150255.80230000196","123305.39900000076","150588.90410000095","150208.0339000022","Stop-Signal Task","28","18463.669300006586","29","yes","1024"
"1","10","131","255","96.66666666666667","96.66666666666667","636.1516733336126","636.1516733336126","black","no","psycho","psycho","psycho","0","uniform","15233","642.9496999990079","0.04220768725786174","1","undefined","1","right","0","29","29","29","29","30","29","NA","29","0","29","0","0","0","29","0","29","29","29","1","29","29","29","Mon Nov 29 14:15:29 2021","315","Loosely based on Logan (1984) Journal of Experimental Psychology: Human Perception and Performance","0","yes","StopSignalTask.osexp","C:\Users\user\Documents\GitHub\StopTaskBCN","no","mono","no","18","no","white","no","yes","768","psycho","29","29","C:/Users/user/Documents/GitHub/StopTaskBCN/subject-2.csv","psycho","Lentiform Loewenfeld","3.3.9","0","right","NA","right","right","NA","620.8809000017936","NA","81248.35249999887","620.8809000017936","NA","2","psycho","1024","2","48000","-16","experiment","","0","2","even","right","8","84903.87750000082","88238.45900000015","153705.57940000072","153527.3288999997","NA","NA","NA","NA","NA","NA","153572.22670000192","84903.91690000251","3604.854500001238","NA","152538.92199999973","3654.5808000009856","152905.82670000003","154590.97230000043","152539.13810000086","123305.39900000076","152905.5945","152493.07100000078","Stop-Signal Task","29","19084.55020000838","30","yes","1024"
"1","10","131","255","96.7741935483871","96.7741935483871","636.8213645163773","636.8213645163773","black","no","psycho","psycho","psycho","0","uniform","16182","682.0557999999437","0.04214904214559039","1","undefined","1","right","0","30","30","30","30","31","30","NA","30","0","30","0","0","0","30","0","30","30","30","1","30","30","30","Mon Nov 29 14:15:29 2021","349","Loosely based on Logan (1984) Journal of Experimental Psychology: Human Perception and Performance","0","yes","StopSignalTask.osexp","C:\Users\user\Documents\GitHub\StopTaskBCN","no","mono","no","18","no","white","no","yes","768","psycho","30","30","C:/Users/user/Documents/GitHub/StopTaskBCN/subject-2.csv","psycho","Lentiform Loewenfeld","3.3.9","0","right","NA","right","right","NA","656.9120999993174","NA","81248.35249999887","656.9120999993174","NA","2","psycho","1024","2","48000","-16","experiment","","0","2","even","right","8","84903.87750000082","88238.45900000015","156038.93590000007","155863.3234000008","NA","NA","NA","NA","NA","NA","155905.57790000094","84903.91690000251","3604.854500001238","NA","154805.61170000146","3654.5808000009856","155205.814500001","156935.36980000135","154805.8301000019","123305.39900000076","155205.60900000055","154755.66750000144","Stop-Signal Task","30","19741.462300007697","31","yes","1024"
"1","10","133","255","96.875","96.875","637.494921875259","637.494921875259","black","no","psycho","psycho","psycho","0","uniform","16206","674.0261999984796","0.04159115142530418","1","undefined","1","left","0","31","31","31","31","32","31","NA","31","0","31","0","0","0","31","0","31","31","31","1","31","31","31","Mon Nov 29 14:15:29 2021","387","Loosely based on Logan (1984) Journal of Experimental Psychology: Human Perception and Performance","1","yes","StopSignalTask.osexp","C:\Users\user\Documents\GitHub\StopTaskBCN","no","mono","no","18","no","white","no","yes","768","psycho","31","31","C:/Users/user/Documents/GitHub/StopTaskBCN/subject-2.csv","psycho","Lentiform Loewenfeld","3.3.9","0","left","NA","right","left","NA","658.3752000005916","NA","81248.35249999887","658.3752000005916","NA","2","psycho","1024","2","48000","-16","experiment","","0","2","even","left","2","84903.87750000082","88238.45900000015","158405.59109999958","158231.32110000006","NA","NA","NA","NA","NA","NA","158272.2864000025","84903.91690000251","3604.854500001238","NA","157155.64860000086","3654.5808000009856","157572.33389999965","159302.9232000008","157155.72990000146","123305.39900000076","157572.27790000252","157116.85200000284","Stop-Signal Task","31","20399.83750000829","32","yes","1024"
"1","10","131","255","96.96969696969697","96.96969696969697","636.6669333335515","636.6669333335515","black","no","psycho","psycho","psycho","0","uniform","15029","627.0917000001646","0.04172544414133772","1","undefined","1","right","0","32","32","32","32","33","32","NA","32","0","32","0","0","0","32","0","32","32","32","1","32","32","32","Mon Nov 29 14:15:29 2021","396","Loosely based on Logan (1984) Journal of Experimental Psychology: Human Perception and Performance","0","yes","StopSignalTask.osexp","C:\Users\user\Documents\GitHub\StopTaskBCN","no","mono","no","18","no","white","no","yes","768","psycho","32","32","C:/Users/user/Documents/GitHub/StopTaskBCN/subject-2.csv","psycho","Lentiform Loewenfeld","3.3.9","0","right","NA","right","right","NA","610.1712999989104","NA","81248.35249999887","610.1712999989104","NA","2","psycho","1024","2","48000","-16","experiment","","0","2","even","right","8","84903.87750000082","88238.45900000015","160755.62759999957","160583.3244000023","NA","NA","NA","NA","NA","NA","160622.2970000017","84903.91690000251","3604.854500001238","NA","159539.08250000313","3654.5808000009856","159972.48650000256","161646.4503999996","159539.4527999997","123305.39900000076","159972.27920000296","159488.82090000188","Stop-Signal Task","32","21010.0088000072","33","yes","1024"
"1","10","131","255","97.05882352941177","97.05882352941177","637.3578794119727","637.3578794119727","black","no","psycho","psycho","psycho","0","uniform","16227","683.0905999995593","0.042095926542155625","1","undefined","1","right","0","33","33","33","33","34","33","NA","33","0","33","0","0","0","33","0","33","33","33","1","33","33","33","Mon Nov 29 14:15:29 2021","393","Loosely based on Logan (1984) Journal of Experimental Psychology: Human Perception and Performance","0","yes","StopSignalTask.osexp","C:\Users\user\Documents\GitHub\StopTaskBCN","no","mono","no","18","no","white","no","yes","768","psycho","33","33","C:/Users/user/Documents/GitHub/StopTaskBCN/subject-2.csv","psycho","Lentiform Loewenfeld","3.3.9","0","right","NA","right","right","NA","660.1590999998734","NA","81248.35249999887","660.1590999998734","NA","2","psycho","1024","2","48000","-16","experiment","","0","2","even","right","8","84903.87750000082","88238.45900000015","163155.64369999993","162983.32540000047","NA","NA","NA","NA","NA","NA","163022.29179999995","84903.91690000251","3604.854500001238","NA","161872.33580000247","3654.5808000009856","162322.5431000028","164065.92230000024","161872.55880000157","123305.39900000076","162322.33130000168","161823.1846000017","Stop-Signal Task","33","21670.167900007073","34","yes","1024"
"1","10","133","255","97.14285714285714","97.14285714285714","639.8563971430121","639.8563971430121","black","no","psycho","psycho","psycho","0","uniform","17885","743.0806999982451","0.041547704780444235","1","undefined","1","left","0","34","34","34","34","35","34","NA","34","0","34","0","0","0","34","0","34","34","34","1","34","34","34","Mon Nov 29 14:15:29 2021","385","Loosely based on Logan (1984) Journal of Experimental Psychology: Human Perception and Performance","1","yes","StopSignalTask.osexp","C:\Users\user\Documents\GitHub\StopTaskBCN","no","mono","no","18","no","white","no","yes","768","psycho","34","34","C:/Users/user/Documents/GitHub/StopTaskBCN/subject-2.csv","psycho","Lentiform Loewenfeld","3.3.9","0","left","NA","right","left","NA","724.8059999983525","NA","81248.35249999887","724.8059999983525","NA","2","psycho","1024","2","48000","-16","experiment","","0","2","even","left","2","84903.87750000082","88238.45900000015","165605.66459999973","165431.3073000012","NA","NA","NA","NA","NA","NA","165472.4051000012","84903.91690000251","3604.854500001238","NA","164272.33640000122","3654.5808000009856","164705.85850000134","166512.2310000006","164272.555800002","123305.39900000076","164705.65360000182","164230.2559000018","Stop-Signal Task","34","22394.973900005425","35","yes","1024"
"1","10","131","255","97.22222222222223","97.22222222222223","639.0484388889995","639.0484388889995","black","no","psycho","psycho","psycho","0","uniform","15046","632.1183000000019","0.042012382028446225","1","undefined","1","right","0","35","35","35","35","36","35","NA","35","0","35","0","0","0","35","0","35","35","35","1","35","35","35","Mon Nov 29 14:15:29 2021","352","Loosely based on Logan (1984) Journal of Experimental Psychology: Human Perception and Performance","0","yes","StopSignalTask.osexp","C:\Users\user\Documents\GitHub\StopTaskBCN","no","mono","no","18","no","white","no","yes","768","psycho","35","35","C:/Users/user/Documents/GitHub/StopTaskBCN/subject-2.csv","psycho","Lentiform Loewenfeld","3.3.9","0","right","NA","right","right","NA","610.7698999985587","NA","81248.35249999887","610.7698999985587","NA","2","psycho","1024","2","48000","-16","experiment","","0","2","even","right","8","84903.87750000082","88238.45900000015","167939.0087000029","167767.33650000097","NA","NA","NA","NA","NA","NA","167805.6858000018","84903.91690000251","3604.854500001238","NA","166755.76280000314","3654.5808000009856","167155.86150000308","168834.54780000102","166755.98830000308","123305.39900000076","167155.65720000086","166702.44340000136","Stop-Signal Task","35","23005.743800003984","36","yes","1024"
"1","10","133","255","97.29729729729729","97.29729729729729","638.8479000001885","638.8479000001885","black","no","psycho","psycho","psycho","0","uniform","15648","646.1060000001453","0.04129000511248372","1","undefined","1","left","0","36","36","36","36","37","36","NA","36","0","36","0","0","0","36","0","36","36","36","1","36","36","36","Mon Nov 29 14:15:29 2021","354","Loosely based on Logan (1984) Journal of Experimental Psychology: Human Perception and Performance","1","yes","StopSignalTask.osexp","C:\Users\user\Documents\GitHub\StopTaskBCN","no","mono","no","18","no","white","no","yes","768","psycho","36","36","C:/Users/user/Documents/GitHub/StopTaskBCN/subject-2.csv","psycho","Lentiform Loewenfeld","3.3.9","0","left","NA","right","left","NA","631.6285000029893","NA","81248.35249999887","631.6285000029893","NA","2","psycho","1024","2","48000","-16","experiment","","0","2","even","left","2","84903.87750000082","88238.45900000015","170239.02369999996","170071.31160000063","NA","NA","NA","NA","NA","NA","170105.68129999956","84903.91690000251","3604.854500001238","NA","169055.73460000232","3654.5808000009856","169439.05610000002","171140.12830000138","169055.98490000193","123305.39900000076","169439.00270000086","169013.60980000027","Stop-Signal Task","36","23637.372300006973","37","yes","1024"
"1","10","133","255","97.36842105263158","97.36842105263158","637.8675105265038","637.8675105265038","black","no","psycho","psycho","psycho","0","uniform","14923","614.1648999982863","0.04115559203901938","1","undefined","1","left","0","37","37","37","37","38","37","NA","37","0","37","0","0","0","37","0","37","37","37","1","37","37","37","Mon Nov 29 14:15:29 2021","359","Loosely based on Logan (1984) Journal of Experimental Psychology: Human Perception and Performance","1","yes","StopSignalTask.osexp","C:\Users\user\Documents\GitHub\StopTaskBCN","no","mono","no","18","no","white","no","yes","768","psycho","37","37","C:/Users/user/Documents/GitHub/StopTaskBCN/subject-2.csv","psycho","Lentiform Loewenfeld","3.3.9","0","left","NA","right","left","NA","601.5931000001729","NA","81248.35249999887","601.5931000001729","NA","2","psycho","1024","2","48000","-16","experiment","","0","2","even","left","2","84903.87750000082","88238.45900000015","172572.37750000058","172391.3414000017","NA","NA","NA","NA","NA","NA","172439.03789999968","84903.91690000251","3604.854500001238","NA","171389.0758000016","3654.5808000009856","171789.08070000034","173476.3804000031","171389.3237000011","123305.39900000076","171789.02540000126","171336.6249000028","Stop-Signal Task","37","24238.965400007146","38","yes","1024"
"1","10","131","255","97.43589743589743","97.43589743589743","641.1341897437524","641.1341897437524","black","no","psycho","psycho","psycho","0","uniform","19034","787.127600000531","0.0413537669433924","1","undefined","1","right","0","38","38","38","38","39","38","NA","38","0","38","0","0","0","38","0","38","38","38","1","38","38","38","Mon Nov 29 14:15:29 2021","348","Loosely based on Logan (1984) Journal of Experimental Psychology: Human Perception and Performance","0","yes","StopSignalTask.osexp","C:\Users\user\Documents\GitHub\StopTaskBCN","no","mono","no","18","no","white","no","yes","768","psycho","38","38","C:/Users/user/Documents/GitHub/StopTaskBCN/subject-2.csv","psycho","Lentiform Loewenfeld","3.3.9","0","right","NA","right","right","NA","765.267999999196","NA","81248.35249999887","765.267999999196","NA","2","psycho","1024","2","48000","-16","experiment","","0","2","even","right","8","84903.87750000082","88238.45900000015","175022.3913000009","174855.33100000248","NA","NA","NA","NA","NA","NA","174889.04449999973","84903.91690000251","3604.854500001238","NA","173689.11170000138","3654.5808000009856","174089.38900000066","175914.32070000155","173689.33690000267","123305.39900000076","174089.03620000274","173637.08140000017","Stop-Signal Task","38","25004.233400006342","39","yes","1024"
"1","10","133","255","97.5","97.5","633.8062925001395","633.8062925001395","black","no","psycho","psycho","psycho","0","uniform","8553","367.8985000005923","0.043013971705903466","1","undefined","1","left","0","39","39","39","39","40","39","NA","39","0","39","0","0","0","39","0","39","39","39","1","39","39","39","Mon Nov 29 14:15:29 2021","329","Loosely based on Logan (1984) Journal of Experimental Psychology: Human Perception and Performance","1","yes","StopSignalTask.osexp","C:\Users\user\Documents\GitHub\StopTaskBCN","no","mono","no","18","no","white","no","yes","768","psycho","39","39","C:/Users/user/Documents/GitHub/StopTaskBCN/subject-2.csv","psycho","Lentiform Loewenfeld","3.3.9","0","left","NA","right","left","NA","348.0182999992394","NA","81248.35249999887","348.0182999992394","NA","2","psycho","1024","2","48000","-16","experiment","","0","2","even","left","2","84903.87750000082","88238.45900000015","177039.0737000016","176871.32770000244","NA","NA","NA","NA","NA","NA","176905.71770000315","84903.91690000251","3604.854500001238","NA","176122.4323000024","3654.5808000009856","176522.66610000152","177942.83220000216","176122.50400000266","123305.39900000076","176522.41760000106","176085.7941000031","Stop-Signal Task","39","25352.25170000558","40","yes","1024"
"1","10","133","255","97.5609756097561","97.5609756097561","632.2344439025229","632.2344439025229","black","no","psycho","psycho","psycho","0","uniform","14129","594.2073000005621","0.0420558638262129","1","undefined","1","left","0","40","40","40","40","41","40","NA","40","0","40","0","0","0","40","0","40","40","40","1","40","40","40","Mon Nov 29 14:15:29 2021","357","Loosely based on Logan (1984) Journal of Experimental Psychology: Human Perception and Performance","1","yes","StopSignalTask.osexp","C:\Users\user\Documents\GitHub\StopTaskBCN","no","mono","no","18","no","white","no","yes","768","psycho","40","40","C:/Users/user/Documents/GitHub/StopTaskBCN/subject-2.csv","psycho","Lentiform Loewenfeld","3.3.9","0","left","NA","right","left","NA","569.3604999978561","NA","81248.35249999887","569.3604999978561","NA","2","psycho","1024","2","48000","-16","experiment","","0","2","even","left","2","84903.87750000082","88238.45900000015","179339.10190000097","179159.33610000138","NA","NA","NA","NA","NA","NA","179205.73990000048","84903.91690000251","3604.854500001238","NA","178172.43470000176","3654.5808000009856","178589.31190000294","180243.93690000215","178172.50540000168","123305.39900000076","178589.103600003","178132.62870000108","Stop-Signal Task","40","25921.612200003437","41","yes","1024"
"1","10","131","255","97.61904761904762","97.61904761904762","633.0992642857988","633.0992642857988","black","no","psycho","psycho","psycho","0","uniform","16391","693.2998999982374","0.042297596241732495","1","undefined","1","right","0","41","41","41","41","42","41","NA","41","0","41","0","0","0","41","0","41","41","41","1","41","41","41","Mon Nov 29 14:15:29 2021","369","Loosely based on Logan (1984) Journal of Experimental Psychology: Human Perception and Performance","0","yes","StopSignalTask.osexp","C:\Users\user\Documents\GitHub\StopTaskBCN","no","mono","no","18","no","white","no","yes","768","psycho","41","41","C:/Users/user/Documents/GitHub/StopTaskBCN/subject-2.csv","psycho","Lentiform Loewenfeld","3.3.9","0","right","NA","right","right","NA","668.5569000001124","NA","81248.35249999887","668.5569000001124","NA","2","psycho","1024","2","48000","-16","experiment","","0","2","even","right","8","84903.87750000082","88238.45900000015","181755.8253999996","181575.35700000153","NA","NA","NA","NA","NA","NA","181622.42590000096","84903.91690000251","3604.854500001238","NA","180455.79940000243","3654.5808000009856","180906.07939999973","182649.3835000001","180456.02150000195","123305.39900000076","180905.7986000007","180407.35889999996","Stop-Signal Task","41","26590.16910000355","42","yes","1024"
"1","10","131","255","97.67441860465117","97.67441860465117","630.640181395456","630.640181395456","black","no","psycho","psycho","psycho","0","uniform","13012","542.0907000006991","0.041660828466085084","1","undefined","1","right","0","42","42","42","42","43","42","NA","42","0","42","0","0","0","42","0","42","42","42","1","42","42","42","Mon Nov 29 14:15:29 2021","330","Loosely based on Logan (1984) Journal of Experimental Psychology: Human Perception and Performance","0","yes","StopSignalTask.osexp","C:\Users\user\Documents\GitHub\StopTaskBCN","no","mono","no","18","no","white","no","yes","768","psycho","42","42","C:/Users/user/Documents/GitHub/StopTaskBCN/subject-2.csv","psycho","Lentiform Loewenfeld","3.3.9","0","right","NA","right","right","NA","527.3587000010593","NA","81248.35249999887","527.3587000010593","NA","2","psycho","1024","2","48000","-16","experiment","","0","2","even","right","8","84903.87750000082","88238.45900000015","183939.1241000012","183767.26710000003","NA","NA","NA","NA","NA","NA","183805.7742000019","84903.91690000251","3604.854500001238","NA","182855.8133000006","3654.5808000009856","183239.2058000005","184836.78510000027","182856.03360000096","123305.39900000076","183239.14370000057","182813.74309999956","Stop-Signal Task","42","27117.52780000461","43","yes","1024"
"1","10","133","255","97.72727272727273","97.72727272727273","629.2443363637921","629.2443363637921","black","no","psycho","psycho","psycho","0","uniform","13975","594.1008999980113","0.04251169230755","1","undefined","1","left","0","43","43","43","43","44","43","NA","43","0","43","0","0","0","43","0","43","43","43","1","43","43","43","Mon Nov 29 14:15:29 2021","307","Loosely based on Logan (1984) Journal of Experimental Psychology: Human Perception and Performance","1","yes","StopSignalTask.osexp","C:\Users\user\Documents\GitHub\StopTaskBCN","no","mono","no","18","no","white","no","yes","768","psycho","43","43","C:/Users/user/Documents/GitHub/StopTaskBCN/subject-2.csv","psycho","Lentiform Loewenfeld","3.3.9","0","left","NA","right","left","NA","569.2230000022391","NA","81248.35249999887","569.2230000022391","NA","2","psycho","1024","2","48000","-16","experiment","","0","2","even","left","2","84903.87750000082","88238.45900000015","186139.14700000169","185959.2601000004","NA","NA","NA","NA","NA","NA","186005.7968000001","84903.91690000251","3604.854500001238","NA","185039.14480000094","3654.5808000009856","185389.3547000007","187044.88550000315","185039.21420000188","123305.39900000076","185389.14480000312","184999.1523000026","Stop-Signal Task","43","27686.75080000685","44","yes","1024"
"1","10","131","255","97.77777777777777","97.77777777777777","629.065182222338","629.065182222338","black","no","psycho","psycho","psycho","0","uniform","15386","645.1587000010477","0.04193154166131858","1","undefined","1","right","0","44","44","44","44","45","44","NA","44","0","44","0","0","0","44","0","44","44","44","1","44","44","44","Mon Nov 29 14:15:29 2021","375","Loosely based on Logan (1984) Journal of Experimental Psychology: Human Perception and Performance","0","yes","StopSignalTask.osexp","C:\Users\user\Documents\GitHub\StopTaskBCN","no","mono","no","18","no","white","no","yes","768","psycho","44","44","C:/Users/user/Documents/GitHub/StopTaskBCN/subject-2.csv","psycho","Lentiform Loewenfeld","3.3.9","0","right","NA","right","right","NA","621.1823999983608","NA","81248.35249999887","621.1823999983608","NA","2","psycho","1024","2","48000","-16","experiment","","0","2","even","right","8","84903.87750000082","88238.45900000015","188489.1411000026","188311.31120000282","NA","NA","NA","NA","NA","NA","188355.8206000016","84903.91690000251","3604.854500001238","NA","187255.8370000006","3654.5808000009856","187689.4323000015","189391.57669999986","187256.05540000106","123305.39900000076","187689.18150000172","187206.10240000315","Stop-Signal Task","44","28307.93320000521","45","yes","1024"
"1","10","131","255","97.82608695652173","97.82608695652173","630.3863565218584","630.3863565218584","black","no","psycho","psycho","psycho","0","uniform","17063","712.137000002258","0.04173574400763395","1","undefined","1","right","0","45","45","45","45","46","45","NA","45","0","45","0","0","0","45","0","45","45","45","1","45","45","45","Mon Nov 29 14:15:29 2021","321","Loosely based on Logan (1984) Journal of Experimental Psychology: Human Perception and Performance","0","yes","StopSignalTask.osexp","C:\Users\user\Documents\GitHub\StopTaskBCN","no","mono","no","18","no","white","no","yes","768","psycho","45","45","C:/Users/user/Documents/GitHub/StopTaskBCN/subject-2.csv","psycho","Lentiform Loewenfeld","3.3.9","0","right","NA","right","right","NA","689.8392000002787","NA","81248.35249999887","689.8392000002787","NA","2","psycho","1024","2","48000","-16","experiment","","0","2","even","right","8","84903.87750000082","88238.45900000015","190839.17110000039","190663.27850000016","NA","NA","NA","NA","NA","NA","190705.85090000168","84903.91690000251","3604.854500001238","NA","189605.8954","3654.5808000009856","189972.740600002","191738.48139999973","189606.117000003","123305.39900000076","189972.51099999994","189552.28290000014","Stop-Signal Task","45","28997.772400005488","46","yes","1024"
"1","10","133","255","97.87234042553192","97.87234042553192","634.3511595745865","634.3511595745865","black","no","psycho","psycho","psycho","0","uniform","20315","831.2025000013818","0.04091570268281476","1","undefined","1","left","0","46","46","46","46","47","46","NA","46","0","46","0","0","0","46","0","46","46","46","1","46","46","46","Mon Nov 29 14:15:29 2021","395","Loosely based on Logan (1984) Journal of Experimental Psychology: Human Perception and Performance","1","yes","StopSignalTask.osexp","C:\Users\user\Documents\GitHub\StopTaskBCN","no","mono","no","18","no","white","no","yes","768","psycho","46","46","C:/Users/user/Documents/GitHub/StopTaskBCN/subject-2.csv","psycho","Lentiform Loewenfeld","3.3.9","0","left","NA","right","left","NA","816.7321000000811","NA","81248.35249999887","816.7321000000811","NA","2","psycho","1024","2","48000","-16","experiment","","0","2","even","left","2","84903.87750000082","88238.45900000015","193389.17140000194","193223.32970000207","NA","NA","NA","NA","NA","NA","193255.83209999968","84903.91690000251","3604.854500001238","NA","191972.52450000087","3654.5808000009856","192405.88910000224","194285.16600000148","191972.59219999978","123305.39900000076","192405.8361999996","191932.49300000025","Stop-Signal Task","46","29814.50450000557","47","yes","1024"
"1","10","133","255","97.91666666666667","97.91666666666667","634.0376208334723","634.0376208334723","black","no","psycho","psycho","psycho","0","uniform","15297","635.9468000009656","0.04157330195469475","1","undefined","1","left","0","47","47","47","47","48","47","NA","47","0","47","0","0","0","47","0","47","47","47","1","47","47","47","Mon Nov 29 14:15:29 2021","371","Loosely based on Logan (1984) Journal of Experimental Psychology: Human Perception and Performance","1","yes","StopSignalTask.osexp","C:\Users\user\Documents\GitHub\StopTaskBCN","no","mono","no","18","no","white","no","yes","768","psycho","47","47","C:/Users/user/Documents/GitHub/StopTaskBCN/subject-2.csv","psycho","Lentiform Loewenfeld","3.3.9","0","left","NA","right","left","NA","619.3013000010978","NA","81248.35249999887","619.3013000010978","NA","2","psycho","1024","2","48000","-16","experiment","","0","2","even","left","2","84903.87750000082","88238.45900000015","195739.1830000015","195559.31460000284","NA","NA","NA","NA","NA","NA","195605.87909999958","84903.91690000251","3604.854500001238","NA","194522.62580000024","3654.5808000009856","194939.2551000019","196634.9962000022","194522.8636000029","123305.39900000076","194939.2012999997","194472.44930000306","Stop-Signal Task","47","30433.805800006667","48","yes","1024"
"1","10","133","255","97.95918367346938","97.95918367346938","641.9950448980671","641.9950448980671","black","no","psycho","psycho","psycho","0","uniform","25265","1036.0743000019283","0.04100828418768764","1","undefined","1","left","0","48","48","48","48","49","48","NA","48","0","48","0","0","0","48","0","48","48","48","1","48","48","48","Mon Nov 29 14:15:29 2021","339","Loosely based on Logan (1984) Journal of Experimental Psychology: Human Perception and Performance","1","yes","StopSignalTask.osexp","C:\Users\user\Documents\GitHub\StopTaskBCN","no","mono","no","18","no","white","no","yes","768","psycho","48","48","C:/Users/user/Documents/GitHub/StopTaskBCN/subject-2.csv","psycho","Lentiform Loewenfeld","3.3.9","0","left","NA","right","left","NA","1023.951399998623","NA","81248.35249999887","1023.951399998623","NA","2","psycho","1024","2","48000","-16","experiment","","0","2","even","left","2","84903.87750000082","88238.45900000015","198422.53809999966","198247.32750000112","NA","NA","NA","NA","NA","NA","198289.20500000095","84903.91690000251","3604.854500001238","NA","196855.8914000023","3654.5808000009856","197222.6002000025","199328.0964000005","196856.11020000215","123305.39900000076","197222.55040000164","196807.07560000155","Stop-Signal Task","48","31457.75720000529","49","yes","1024"
"1","10","131","255","98","98","638.4437740001158","638.4437740001158","black","no","psycho","psycho","psycho","0","uniform","11454","489.68600000080187","0.04275240090804975","1","undefined","1","right","0","49","49","49","49","50","49","NA","49","0","49","0","0","0","49","0","49","49","49","1","49","49","49","Mon Nov 29 14:15:29 2021","376","Loosely based on Logan (1984) Journal of Experimental Psychology: Human Perception and Performance","0","yes","StopSignalTask.osexp","C:\Users\user\Documents\GitHub\StopTaskBCN","no","mono","no","18","no","white","no","yes","768","psycho","49","49","C:/Users/user/Documents/GitHub/StopTaskBCN/subject-2.csv","psycho","Lentiform Loewenfeld","3.3.9","0","right","NA","right","right","NA","464.4315000005008","NA","81248.35249999887","464.4315000005008","NA","2","psycho","1024","2","48000","-16","experiment","","0","2","even","right","8","84903.87750000082","88238.45900000015","200639.23640000212","200471.26310000021","NA","NA","NA","NA","NA","NA","200505.8945000019","84903.91690000251","3604.854500001238","NA","199572.68540000223","3654.5808000009856","200006.11420000132","201531.06300000218","199572.91310000073","123305.39900000076","200005.91010000062","199513.65179999993","Stop-Signal Task","49","31922.18870000579","50","yes","1024"
"1","10","141","255","98.03921568627452","98.03921568627452","664.8763039217253","664.8763039217253","black","no","psycho","psycho","psycho","0","uniform","47433","2000.0054000011005","0.0421648514747349","1","undefined","1","None","0","50","50","50","50","51","50","NA","50","0","50","0","0","0","50","0","50","50","50","2","50","50","50","Mon Nov 29 14:15:29 2021","334","Loosely based on Logan (1984) Journal of Experimental Psychology: Human Perception and Performance","1","yes","StopSignalTask.osexp","C:\Users\user\Documents\GitHub\StopTaskBCN","no","mono","no","18","no","white","no","yes","768","psycho","50","50","C:/Users/user/Documents/GitHub/StopTaskBCN/subject-2.csv","psycho","Lentiform Loewenfeld","3.3.9","0","None","NA","right","None","NA","1986.5028000021994","NA","81248.35249999887","1986.5028000021994","NA","2","psycho","1024","2","48000","-16","experiment","50","8","2","even","left","3","84903.87750000082","88238.45900000015","204289.25240000171","204142.9487000023","NA","NA","NA","NA","NA","NA","204155.9089000002","84903.91690000251","3604.854500001238","NA","201772.64959999957","3654.5808000009856","202155.94910000073","205192.0917000025","201772.89590000146","202222.59230000054","202155.8941000003","201722.663200002","Stop-Signal Task","50","33908.69150000799","51","yes","1024"
"1","10","131","255","98.07692307692308","98.07692307692308","663.0303884616856","663.0303884616856","black","no","psycho","psycho","psycho","0","uniform","13772","594.102600000042","0.04313844031368298","1","undefined","1","right","0","51","51","51","51","52","51","NA","51","0","51","0","0","0","51","0","51","51","51","2","51","51","51","Mon Nov 29 14:15:29 2021","313","Loosely based on Logan (1984) Journal of Experimental Psychology: Human Perception and Performance","0","yes","StopSignalTask.osexp","C:\Users\user\Documents\GitHub\StopTaskBCN","no","mono","no","18","no","white","no","yes","768","psycho","51","51","C:/Users/user/Documents/GitHub/StopTaskBCN/subject-2.csv","psycho","Lentiform Loewenfeld","3.3.9","0","right","NA","right","right","NA","568.8886999996612","NA","81248.35249999887","568.8886999996612","NA","2","psycho","1024","2","48000","-16","experiment","","0","2","even","right","8","84903.87750000082","88238.45900000015","206539.26200000205","206359.28360000253","NA","NA","NA","NA","NA","NA","206405.93680000165","84903.91690000251","3604.854500001238","NA","205405.95640000174","3654.5808000009856","205789.6176000031","207441.93160000214","205406.02870000293","202222.59230000054","205789.348600003","205364.52140000256","Stop-Signal Task","51","34477.58020000765","52","yes","1024"
"1","10","133","255","98.11320754716981","98.11320754716981","660.1361207548558","660.1361207548558","black","no","psycho","psycho","psycho","0","uniform","12592","534.8185000002559","0.04247287960611943","1","undefined","1","left","0","52","52","52","52","53","52","NA","52","0","52","0","0","0","52","0","52","52","52","2","52","52","52","Mon Nov 29 14:15:29 2021","349","Loosely based on Logan (1984) Journal of Experimental Psychology: Human Perception and Performance","1","yes","StopSignalTask.osexp","C:\Users\user\Documents\GitHub\StopTaskBCN","no","mono","no","18","no","white","no","yes","768","psycho","52","52","C:/Users/user/Documents/GitHub/StopTaskBCN/subject-2.csv","psycho","Lentiform Loewenfeld","3.3.9","0","left","NA","right","left","NA","509.6341999997094","NA","81248.35249999887","509.6341999997094","NA","2","psycho","1024","2","48000","-16","experiment","","0","2","even","left","2","84903.87750000082","88238.45900000015","208755.95670000257","208583.27900000222","NA","NA","NA","NA","NA","NA","208622.63069999972","84903.91690000251","3604.854500001238","NA","207672.6458000012","3654.5808000009856","208072.9207000004","209647.74949999992","207672.71690000052","202222.59230000054","208072.71050000054","207633.07990000249","Stop-Signal Task","52","34987.21440000736","53","yes","1024"
"1","10","133","255","98.14814814814815","98.14814814814815","658.9550611112861","658.9550611112861","black","no","psycho","psycho","psycho","0","uniform","14543","617.1845999997458","0.04243860276419899","1","undefined","1","left","0","53","53","53","53","54","53","NA","53","0","53","0","0","0","53","0","53","53","53","2","53","53","53","Mon Nov 29 14:15:29 2021","389","Loosely based on Logan (1984) Journal of Experimental Psychology: Human Perception and Performance","1","yes","StopSignalTask.osexp","C:\Users\user\Documents\GitHub\StopTaskBCN","no","mono","no","18","no","white","no","yes","768","psycho","53","53","C:/Users/user/Documents/GitHub/StopTaskBCN/subject-2.csv","psycho","Lentiform Loewenfeld","3.3.9","0","left","NA","right","left","NA","596.3589000020875","NA","81248.35249999887","596.3589000020875","NA","2","psycho","1024","2","48000","-16","experiment","","0","2","even","left","2","84903.87750000082","88238.45900000015","211072.6261000018","210903.27610000168","NA","NA","NA","NA","NA","NA","210939.28710000182","84903.91690000251","3604.854500001238","NA","209855.99120000188","3654.5808000009856","210306.17379999967","211984.81700000048","209856.05770000257","202222.59230000054","210305.97560000024","209816.48570000107","Stop-Signal Task","53","35583.57330000945","54","yes","1024"
"1","10","131","255","98.18181818181819","98.18181818181819","657.3554363638158","657.3554363638158","black","no","psycho","psycho","psycho","0","uniform","14059","597.1654999993916","0.04247567394547205","1","undefined","1","right","0","54","54","54","54","55","54","NA","54","0","54","0","0","0","54","0","54","54","54","2","54","54","54","Mon Nov 29 14:15:29 2021","307","Loosely based on Logan (1984) Journal of Experimental Psychology: Human Perception and Performance","0","yes","StopSignalTask.osexp","C:\Users\user\Documents\GitHub\StopTaskBCN","no","mono","no","18","no","white","no","yes","768","psycho","54","54","C:/Users/user/Documents/GitHub/StopTaskBCN/subject-2.csv","psycho","Lentiform Loewenfeld","3.3.9","0","right","NA","right","right","NA","570.9757000004174","NA","81248.35249999887","570.9757000004174","NA","2","psycho","1024","2","48000","-16","experiment","","0","2","even","right","8","84903.87750000082","88238.45900000015","213289.32420000274","213111.26610000065","NA","NA","NA","NA","NA","NA","213155.9995000025","84903.91690000251","3604.854500001238","NA","212189.33090000064","3654.5808000009856","212539.53390000243","214187.4807000022","212189.39800000226","202222.59230000054","212539.33049999978","212151.37080000204","Stop-Signal Task","54","36154.549000009865","55","yes","1024"
"1","10","133","255","98.21428571428571","98.21428571428571","654.4699500001506","654.4699500001506","black","no","psycho","psycho","psycho","0","uniform","12141","506.9818000010855","0.041757828844500904","1","undefined","1","left","0","55","55","55","55","56","55","NA","55","0","55","0","0","0","55","0","55","55","55","2","55","55","55","Mon Nov 29 14:15:29 2021","389","Loosely based on Logan (1984) Journal of Experimental Psychology: Human Perception and Performance","1","yes","StopSignalTask.osexp","C:\Users\user\Documents\GitHub\StopTaskBCN","no","mono","no","18","no","white","no","yes","768","psycho","55","55","C:/Users/user/Documents/GitHub/StopTaskBCN/subject-2.csv","psycho","Lentiform Loewenfeld","3.3.9","0","left","NA","right","left","NA","495.76819999856525","NA","81248.35249999887","495.76819999856525","NA","2","psycho","1024","2","48000","-16","experiment","","0","2","even","left","2","84903.87750000082","88238.45900000015","215489.33820000093","215319.25700000284","NA","NA","NA","NA","NA","NA","215356.01650000172","84903.91690000251","3604.854500001238","NA","214389.3440000029","3654.5808000009856","214822.7313000025","216392.5417999999","214389.41030000206","202222.59230000054","214822.6734000018","214353.04760000145","Stop-Signal Task","55","36650.31720000843","56","yes","1024"
"1","10","131","255","98.24561403508773","98.24561403508773","652.1156491229735","652.1156491229735","black","no","psycho","psycho","psycho","0","uniform","12695","544.2541000011261","0.04287153209934037","1","undefined","1","right","0","56","56","56","56","57","56","NA","56","0","56","0","0","0","56","0","56","56","56","2","56","56","56","Mon Nov 29 14:15:29 2021","354","Loosely based on Logan (1984) Journal of Experimental Psychology: Human Perception and Performance","0","yes","StopSignalTask.osexp","C:\Users\user\Documents\GitHub\StopTaskBCN","no","mono","no","18","no","white","no","yes","768","psycho","56","56","C:/Users/user/Documents/GitHub/StopTaskBCN/subject-2.csv","psycho","Lentiform Loewenfeld","3.3.9","0","right","NA","right","right","NA","520.2748000010615","NA","81248.35249999887","520.2748000010615","NA","2","psycho","1024","2","48000","-16","experiment","","0","2","even","right","8","84903.87750000082","88238.45900000015","217705.9975000011","217527.30080000038","NA","NA","NA","NA","NA","NA","217572.7089000029","84903.91690000251","3604.854500001238","NA","216606.05080000096","3654.5808000009856","217006.25109999964","218600.48219999953","216606.28429999997","202222.59230000054","217006.04020000173","216563.73140000142","Stop-Signal Task","56","37170.59200000949","57","yes","1024"
"1","10","131","255","98.27586206896552","98.27586206896552","650.5233931036165","650.5233931036165","black","no","psycho","psycho","psycho","0","uniform","13821","576.2195999996038","0.04169159973949814","1","undefined","1","right","0","57","57","57","57","58","57","NA","57","0","57","0","0","0","57","0","57","57","57","2","57","57","57","Mon Nov 29 14:15:29 2021","377","Loosely based on Logan (1984) Journal of Experimental Psychology: Human Perception and Performance","0","yes","StopSignalTask.osexp","C:\Users\user\Documents\GitHub\StopTaskBCN","no","mono","no","18","no","white","no","yes","768","psycho","57","57","C:/Users/user/Documents/GitHub/StopTaskBCN/subject-2.csv","psycho","Lentiform Loewenfeld","3.3.9","0","right","NA","right","right","NA","559.7648000002664","NA","81248.35249999887","559.7648000002664","NA","2","psycho","1024","2","48000","-16","experiment","","0","2","even","right","8","84903.87750000082","88238.45900000015","219956.0543000007","219783.27470000295","NA","NA","NA","NA","NA","NA","219822.7024000007","84903.91690000251","3604.854500001238","NA","218806.0415","3654.5808000009856","219222.76290000082","220858.5561","218806.25940000027","202222.59230000054","219222.70930000013","218761.12800000192","Stop-Signal Task","57","37730.35680000976","58","yes","1024"
"1","10","133","255","98.30508474576271","98.30508474576271","650.203159322207","650.203159322207","black","no","psycho","psycho","psycho","0","uniform","15513","652.2580000018934","0.04204589698974366","1","undefined","1","left","0","58","58","58","58","59","58","NA","58","0","58","0","0","0","58","0","58","58","58","2","58","58","58","Mon Nov 29 14:15:29 2021","302","Loosely based on Logan (1984) Journal of Experimental Psychology: Human Perception and Performance","1","yes","StopSignalTask.osexp","C:\Users\user\Documents\GitHub\StopTaskBCN","no","mono","no","18","no","white","no","yes","768","psycho","58","58","C:/Users/user/Documents/GitHub/StopTaskBCN/subject-2.csv","psycho","Lentiform Loewenfeld","3.3.9","0","left","NA","right","left","NA","631.6296000004513","NA","81248.35249999887","631.6296000004513","NA","2","psycho","1024","2","48000","-16","experiment","","0","2","even","left","2","84903.87750000082","88238.45900000015","222222.71700000056","222055.29740000202","NA","NA","NA","NA","NA","NA","222089.3974999999","84903.91690000251","3604.854500001238","NA","221072.72010000088","3654.5808000009856","221422.89040000105","223135.7190000017","221072.93630000277","202222.59230000054","221422.6916000007","221022.33650000198","Stop-Signal Task","58","38361.98640001021","59","yes","1024"
"1","10","131","255","98.33333333333333","98.33333333333333","649.4365350001923","649.4365350001923","black","no","psycho","psycho","psycho","0","uniform","14910","630.2310999999463","0.04226902079141156","1","undefined","1","right","0","59","59","59","59","60","59","NA","59","0","59","0","0","0","59","0","59","59","59","2","59","59","59","Mon Nov 29 14:15:29 2021","317","Loosely based on Logan (1984) Journal of Experimental Psychology: Human Perception and Performance","0","yes","StopSignalTask.osexp","C:\Users\user\Documents\GitHub\StopTaskBCN","no","mono","no","18","no","white","no","yes","768","psycho","59","59","C:/Users/user/Documents/GitHub/StopTaskBCN/subject-2.csv","psycho","Lentiform Loewenfeld","3.3.9","0","right","NA","right","right","NA","604.2057000013301","NA","81248.35249999887","604.2057000013301","NA","2","psycho","1024","2","48000","-16","experiment","","0","2","even","right","8","84903.87750000082","88238.45900000015","224489.39990000144","224311.27879999985","NA","NA","NA","NA","NA","NA","224356.05560000113","84903.91690000251","3604.854500001238","NA","223339.41640000194","3654.5808000009856","223706.28410000063","225387.8457000028","223339.48390000296","202222.59230000054","223706.07820000077","223299.3415000019","Stop-Signal Task","59","38966.19210001154","60","yes","1024"
"1","10","133","255","98.36065573770492","98.36065573770492","649.0254213116356","649.0254213116356","black","no","psycho","psycho","psycho","0","uniform","15292","636.2498000016785","0.04160670939064076","1","undefined","1","left","0","60","60","60","60","61","60","NA","60","0","60","0","0","0","60","0","60","60","60","2","60","60","60","Mon Nov 29 14:15:29 2021","383","Loosely based on Logan (1984) Journal of Experimental Psychology: Human Perception and Performance","1","yes","StopSignalTask.osexp","C:\Users\user\Documents\GitHub\StopTaskBCN","no","mono","no","18","no","white","no","yes","768","psycho","60","60","C:/Users/user/Documents/GitHub/StopTaskBCN/subject-2.csv","psycho","Lentiform Loewenfeld","3.3.9","0","left","NA","right","left","NA","624.3585999982315","NA","81248.35249999887","624.3585999982315","NA","2","psycho","1024","2","48000","-16","experiment","","0","2","even","left","2","84903.87750000082","88238.45900000015","226806.06679999983","226631.2863000021","NA","NA","NA","NA","NA","NA","226672.73470000146","84903.91690000251","3604.854500001238","NA","225589.4339000006","3654.5808000009856","226006.1201000026","227707.9541000021","225589.50090000144","202222.59230000054","226006.06289999996","225548.8886000021","Stop-Signal Task","60","39590.55070000977","61","yes","1024"
"1","10","133","255","98.38709677419355","98.38709677419355","646.5953000001572","646.5953000001572","black","no","psycho","psycho","psycho","0","uniform","12319","509.2482000000018","0.041338436561409356","1","undefined","1","left","0","61","61","61","61","62","61","NA","61","0","61","0","0","0","61","0","61","61","61","2","61","61","61","Mon Nov 29 14:15:29 2021","395","Loosely based on Logan (1984) Journal of Experimental Psychology: Human Perception and Performance","1","yes","StopSignalTask.osexp","C:\Users\user\Documents\GitHub\StopTaskBCN","no","mono","no","18","no","white","no","yes","768","psycho","61","61","C:/Users/user/Documents/GitHub/StopTaskBCN/subject-2.csv","psycho","Lentiform Loewenfeld","3.3.9","0","left","NA","right","left","NA","498.3578999999736","NA","81248.35249999887","498.3578999999736","NA","2","psycho","1024","2","48000","-16","experiment","","0","2","even","left","2","84903.87750000082","88238.45900000015","229022.76220000203","228855.26800000298","NA","NA","NA","NA","NA","NA","228889.41440000053","84903.91690000251","3604.854500001238","NA","227922.7761000002","3654.5808000009856","228356.12720000063","229922.70570000255","227922.99660000208","202222.59230000054","228356.07380000147","227877.13230000008","Stop-Signal Task","61","40088.908600009745","62","yes","1024"
"1","10","133","255","98.41269841269842","98.41269841269842","647.9030079366538","647.9030079366538","black","no","psycho","psycho","psycho","0","uniform","18037","743.2717999981833","0.04120817209060172","1","undefined","1","left","0","62","62","62","62","63","62","NA","62","0","62","0","0","0","62","0","62","62","62","2","62","62","62","Mon Nov 29 14:15:29 2021","394","Loosely based on Logan (1984) Journal of Experimental Psychology: Human Perception and Performance","1","yes","StopSignalTask.osexp","C:\Users\user\Documents\GitHub\StopTaskBCN","no","mono","no","18","no","white","no","yes","768","psycho","62","62","C:/Users/user/Documents/GitHub/StopTaskBCN/subject-2.csv","psycho","Lentiform Loewenfeld","3.3.9","0","left","NA","right","left","NA","728.980899999442","NA","81248.35249999887","728.980899999442","NA","2","psycho","1024","2","48000","-16","experiment","","0","2","even","left","2","84903.87750000082","88238.45900000015","231489.44670000128","231319.27290000021","NA","NA","NA","NA","NA","NA","231356.09860000113","84903.91690000251","3604.854500001238","NA","230156.1440000005","3654.5808000009856","230589.47380000245","232394.58899999954","230156.22070000245","202222.59230000054","230589.42130000287","230115.68470000202","Stop-Signal Task","62","40817.88950000919","63","yes","1024"
"1","10","131","255","98.4375","98.4375","649.9272015626616","649.9272015626616","black","no","psycho","psycho","psycho","0","uniform","19123","797.2278000015649","0.04168947340906578","1","undefined","1","right","0","63","63","63","63","64","63","NA","63","0","63","0","0","0","63","0","63","63","63","2","63","63","63","Mon Nov 29 14:15:29 2021","319","Loosely based on Logan (1984) Journal of Experimental Psychology: Human Perception and Performance","0","yes","StopSignalTask.osexp","C:\Users\user\Documents\GitHub\StopTaskBCN","no","mono","no","18","no","white","no","yes","768","psycho","63","63","C:/Users/user/Documents/GitHub/StopTaskBCN/subject-2.csv","psycho","Lentiform Loewenfeld","3.3.9","0","right","NA","right","right","NA","777.451400001155","NA","81248.35249999887","777.451400001155","NA","2","psycho","1024","2","48000","-16","experiment","","0","2","even","right","8","84903.87750000082","88238.45900000015","233922.79570000028","233751.24210000286","NA","NA","NA","NA","NA","NA","233789.4484999997","84903.91690000251","3604.854500001238","NA","232606.1566999997","3654.5808000009856","232972.97980000076","234816.24740000188","232606.38200000176","202222.59230000054","232972.77720000056","232555.6460000007","Stop-Signal Task","63","41595.34090001034","64","yes","1024"
"1","10","131","255","98.46153846153847","98.46153846153847","649.8910615386334","649.8910615386334","black","no","psycho","psycho","psycho","0","uniform","16000","664.2104999991716","0.041513156249948224","1","undefined","1","right","0","64","64","64","64","65","64","NA","64","0","64","0","0","0","64","0","64","64","64","2","64","64","64","Mon Nov 29 14:15:29 2021","343","Loosely based on Logan (1984) Journal of Experimental Psychology: Human Perception and Performance","0","yes","StopSignalTask.osexp","C:\Users\user\Documents\GitHub\StopTaskBCN","no","mono","no","18","no","white","no","yes","768","psycho","64","64","C:/Users/user/Documents/GitHub/StopTaskBCN/subject-2.csv","psycho","Lentiform Loewenfeld","3.3.9","0","right","NA","right","right","NA","647.5781000008283","NA","81248.35249999887","647.5781000008283","NA","2","psycho","1024","2","48000","-16","experiment","","0","2","even","right","8","84903.87750000082","88238.45900000015","236239.47780000162","236071.26450000214","NA","NA","NA","NA","NA","NA","236106.15220000182","84903.91690000251","3604.854500001238","NA","235022.8229000022","3654.5808000009856","235422.87560000113","237131.9177000005","235023.03930000198","202222.59230000054","235422.80570000003","234980.91490000297","Stop-Signal Task","64","42242.91900001117","65","yes","1024"
"1","10","133","255","98.48484848484848","98.48484848484848","652.1141893941108","652.1141893941108","black","no","psycho","psycho","psycho","0","uniform","18900","811.3052000007883","0.04292620105824277","1","undefined","1","left","0","65","65","65","65","66","65","NA","65","0","65","0","0","0","65","0","65","65","65","2","65","65","65","Mon Nov 29 14:15:29 2021","301","Loosely based on Logan (1984) Journal of Experimental Psychology: Human Perception and Performance","1","yes","StopSignalTask.osexp","C:\Users\user\Documents\GitHub\StopTaskBCN","no","mono","no","18","no","white","no","yes","768","psycho","65","65","C:/Users/user/Documents/GitHub/StopTaskBCN/subject-2.csv","psycho","Lentiform Loewenfeld","3.3.9","0","left","NA","right","left","NA","796.6175000001385","NA","81248.35249999887","796.6175000001385","NA","2","psycho","1024","2","48000","-16","experiment","","0","2","even","left","2","84903.87750000082","88238.45900000015","238672.84270000164","238487.31190000035","NA","NA","NA","NA","NA","NA","238523.03500000198","84903.91690000251","3604.854500001238","NA","237339.52119999958","3654.5808000009856","237689.8691000024","239574.90770000004","237339.746200003","202222.59230000054","237689.70990000162","237294.0398000028","Stop-Signal Task","65","43039.53650001131","66","yes","1024"
"1","10","141","255","98.50746268656717","98.50746268656717","671.8921164180363","671.8921164180363","black","no","psycho","psycho","psycho","0","uniform","47581","2000.0313999989885","0.04203424476154323","1","undefined","1","None","0","66","66","66","66","67","66","NA","66","0","66","0","0","0","66","0","66","66","66","3","66","66","66","Mon Nov 29 14:15:29 2021","358","Loosely based on Logan (1984) Journal of Experimental Psychology: Human Perception and Performance","1","yes","StopSignalTask.osexp","C:\Users\user\Documents\GitHub\StopTaskBCN","no","mono","no","18","no","white","no","yes","768","psycho","66","66","C:/Users/user/Documents/GitHub/StopTaskBCN/subject-2.csv","psycho","Lentiform Loewenfeld","3.3.9","0","None","NA","right","None","NA","1977.235299997119","NA","81248.35249999887","1977.235299997119","NA","2","psycho","1024","2","48000","-16","experiment","50","8","2","even","left","3","84903.87750000082","88238.45900000015","242372.86239999958","242201.99380000122","NA","NA","NA","NA","NA","NA","242222.8649000026","84903.91690000251","3604.854500001238","NA","239806.2647000006","3654.5808000009856","240224.1731000031","243270.20720000291","239806.56810000073","240289.50240000268","240223.21010000087","239758.9156000031","Stop-Signal Task","66","45016.77180000843","67","yes","1024"
"1","10","131","255","98.52941176470588","98.52941176470588","669.6120397060333","669.6120397060333","black","no","psycho","psycho","psycho","0","uniform","12772","528.2044999985374","0.041356443783161397","1","undefined","1","right","0","67","67","67","67","68","67","NA","67","0","67","0","0","0","67","0","67","67","67","3","67","67","67","Mon Nov 29 14:15:29 2021","348","Loosely based on Logan (1984) Journal of Experimental Psychology: Human Perception and Performance","0","yes","StopSignalTask.osexp","C:\Users\user\Documents\GitHub\StopTaskBCN","no","mono","no","18","no","white","no","yes","768","psycho","67","67","C:/Users/user/Documents/GitHub/StopTaskBCN/subject-2.csv","psycho","Lentiform Loewenfeld","3.3.9","0","right","NA","right","right","NA","516.8469000018376","NA","81248.35249999887","516.8469000018376","NA","2","psycho","1024","2","48000","-16","experiment","","0","2","even","right","8","84903.87750000082","88238.45900000015","244572.86130000284","244407.26170000198","NA","NA","NA","NA","NA","NA","244439.51870000092","84903.91690000251","3604.854500001238","NA","243506.22870000007","3654.5808000009856","243889.5936000008","245478.77860000153","243506.4592000017","240289.50240000268","243889.53910000055","243461.35950000098","Stop-Signal Task","67","45533.618700010265","68","yes","1024"
"1","10","131","255","98.55072463768116","98.55072463768116","670.7592971016193","670.7592971016193","black","no","psycho","psycho","psycho","0","uniform","18498","763.0357000016375","0.04124963239277962","1","undefined","1","right","0","68","68","68","68","69","68","NA","68","0","68","0","0","0","68","0","68","68","68","3","68","68","68","Mon Nov 29 14:15:29 2021","348","Loosely based on Logan (1984) Journal of Experimental Psychology: Human Perception and Performance","0","yes","StopSignalTask.osexp","C:\Users\user\Documents\GitHub\StopTaskBCN","no","mono","no","18","no","white","no","yes","768","psycho","68","68","C:/Users/user/Documents/GitHub/StopTaskBCN/subject-2.csv","psycho","Lentiform Loewenfeld","3.3.9","0","right","NA","right","right","NA","748.7728000014613","NA","81248.35249999887","748.7728000014613","NA","2","psycho","1024","2","48000","-16","experiment","","0","2","even","right","8","84903.87750000082","88238.45900000015","247006.21930000125","246839.21290000217","NA","NA","NA","NA","NA","NA","246872.88380000246","84903.91690000251","3604.854500001238","NA","245689.5734000027","3654.5808000009856","246089.61320000162","247905.84769999987","245689.79519999993","240289.50240000268","246089.5522000028","245647.90859999994","Stop-Signal Task","68","46282.39150001173","69","yes","1024"
"1","10","131","255","98.57142857142857","98.57142857142857","672.7758128572792","672.7758128572792","black","no","psycho","psycho","psycho","0","uniform","19719","834.4560999976238","0.04231736396356934","1","undefined","1","right","0","69","69","69","69","70","69","NA","69","0","69","0","0","0","69","0","69","69","69","3","69","69","69","Mon Nov 29 14:15:29 2021","312","Loosely based on Logan (1984) Journal of Experimental Psychology: Human Perception and Performance","0","yes","StopSignalTask.osexp","C:\Users\user\Documents\GitHub\StopTaskBCN","no","mono","no","18","no","white","no","yes","768","psycho","69","69","C:/Users/user/Documents/GitHub/StopTaskBCN/subject-2.csv","psycho","Lentiform Loewenfeld","3.3.9","0","right","NA","right","right","NA","811.9153999978153","NA","81248.35249999887","811.9153999978153","NA","2","psycho","1024","2","48000","-16","experiment","","0","2","even","right","8","84903.87750000082","88238.45900000015","249489.56870000256","249319.2940000008","NA","NA","NA","NA","NA","NA","249356.25000000073","84903.91690000251","3604.854500001238","NA","248122.91929999992","3654.5808000009856","248506.54490000306","250388.63459999993","248123.1418000025","240289.50240000268","248506.2633000016","248074.34300000023","Stop-Signal Task","69","47094.30690000954","70","yes","1024"
"1","10","131","255","98.59154929577464","98.59154929577464","672.2099450705339","672.2099450705339","black","no","psycho","psycho","psycho","0","uniform","15524","659.230999997817","0.042465279566981255","1","undefined","1","right","0","70","70","70","70","71","70","NA","70","0","70","0","0","0","70","0","70","70","70","3","70","70","70","Mon Nov 29 14:15:29 2021","337","Loosely based on Logan (1984) Journal of Experimental Psychology: Human Perception and Performance","0","yes","StopSignalTask.osexp","C:\Users\user\Documents\GitHub\StopTaskBCN","no","mono","no","18","no","white","no","yes","768","psycho","70","70","C:/Users/user/Documents/GitHub/StopTaskBCN/subject-2.csv","psycho","Lentiform Loewenfeld","3.3.9","0","right","NA","right","right","NA","632.5991999983671","NA","81248.35249999887","632.5991999983671","NA","2","psycho","1024","2","48000","-16","experiment","","0","2","even","right","8","84903.87750000082","88238.45900000015","251789.5806000015","251623.25350000174","NA","NA","NA","NA","NA","NA","251656.2281000006","84903.91690000251","3604.854500001238","NA","250606.31510000167","3654.5808000009856","250989.8071000025","252690.2876000022","250606.5305000011","240289.50240000268","250989.59660000037","250552.98720000064","Stop-Signal Task","70","47726.90610000791","71","yes","1024"
"1","10","131","255","98.61111111111111","98.61111111111111","671.2341555556426","671.2341555556426","black","no","psycho","psycho","psycho","0","uniform","14601","627.3299999993469","0.04296486542013197","1","undefined","1","right","0","71","71","71","71","72","71","NA","71","0","71","0","0","0","71","0","71","71","71","3","71","71","71","Mon Nov 29 14:15:29 2021","358","Loosely based on Logan (1984) Journal of Experimental Psychology: Human Perception and Performance","0","yes","StopSignalTask.osexp","C:\Users\user\Documents\GitHub\StopTaskBCN","no","mono","no","18","no","white","no","yes","768","psycho","71","71","C:/Users/user/Documents/GitHub/StopTaskBCN/subject-2.csv","psycho","Lentiform Loewenfeld","3.3.9","0","right","NA","right","right","NA","601.9530999983544","NA","81248.35249999887","601.9530999983544","NA","2","psycho","1024","2","48000","-16","experiment","","0","2","even","right","8","84903.87750000082","88238.45900000015","254139.60620000216","253959.27810000285","NA","NA","NA","NA","NA","NA","254006.240900002","84903.91690000251","3604.854500001238","NA","252939.60530000186","3654.5808000009856","253356.48660000152","255037.20840000096","252939.82230000256","240289.50240000268","253356.2828000031","252886.4606999996","Stop-Signal Task","71","48328.85920000626","72","yes","1024"
"1","10","131","255","98.63013698630137","98.63013698630137","668.1398794521244","668.1398794521244","black","no","psycho","psycho","psycho","0","uniform","10966","457.1531000001414","0.041688227247869906","1","undefined","1","right","0","72","72","72","72","73","72","NA","72","0","72","0","0","0","72","0","72","72","72","3","72","72","72","Mon Nov 29 14:15:29 2021","360","Loosely based on Logan (1984) Journal of Experimental Psychology: Human Perception and Performance","0","yes","StopSignalTask.osexp","C:\Users\user\Documents\GitHub\StopTaskBCN","no","mono","no","18","no","white","no","yes","768","psycho","72","72","C:/Users/user/Documents/GitHub/StopTaskBCN/subject-2.csv","psycho","Lentiform Loewenfeld","3.3.9","0","right","NA","right","right","NA","445.35199999882025","NA","81248.35249999887","445.35199999882025","NA","2","psycho","1024","2","48000","-16","experiment","","0","2","even","right","8","84903.87750000082","88238.45900000015","256289.59360000226","256119.25840000185","NA","NA","NA","NA","NA","NA","256156.32090000145","84903.91690000251","3604.854500001238","NA","255273.02060000147","3654.5808000009856","255673.00910000267","257184.46730000142","255273.2907999998","240289.50240000268","255672.951200002","255227.4593000002","Stop-Signal Task","72","48774.211200005084","73","yes","1024"
"1","10","131","255","98.64864864864865","98.64864864864865","666.7959756757498","666.7959756757498","black","no","psycho","psycho","psycho","0","uniform","14045","581.1625999995158","0.0413786116055191","1","undefined","1","right","0","73","73","73","73","74","73","NA","73","0","73","0","0","0","73","0","73","73","73","3","73","73","73","Mon Nov 29 14:15:29 2021","311","Loosely based on Logan (1984) Journal of Experimental Psychology: Human Perception and Performance","0","yes","StopSignalTask.osexp","C:\Users\user\Documents\GitHub\StopTaskBCN","no","mono","no","18","no","white","no","yes","768","psycho","73","73","C:/Users/user/Documents/GitHub/StopTaskBCN/subject-2.csv","psycho","Lentiform Loewenfeld","3.3.9","0","right","NA","right","right","NA","568.6910000003991","NA","81248.35249999887","568.6910000003991","NA","2","psycho","1024","2","48000","-16","experiment","","0","2","even","right","8","84903.87750000082","88238.45900000015","258539.6174000016","258359.31230000278","NA","NA","NA","NA","NA","NA","258406.33470000103","84903.91690000251","3604.854500001238","NA","257423.0387000025","3654.5808000009856","257789.6924000015","259444.44510000176","257423.25900000287","240289.50240000268","257789.63510000176","257369.23410000236","Stop-Signal Task","73","49342.90220000548","74","yes","1024"
