"FixdotCode","PulseDuration","ResponseCode","StopSignalCode","acc","accuracy","average_response_time","avg_rt","background","bidi","canvas_backend","clock_backend","color_backend","compensation","coordinates","coroutines_cycles","coroutines_duration","coroutines_mean_cycle_duration","correct","correct_instructions","correct_kb_response","correct_response","count_CodeSettings","count_ErrorFeedback","count_NoError","count_ResponseCalc","count_ResponseGiven","count_SetlinesZero","count_StartFixdot","count_StartStopsignal","count_StartTarget","count_about_this_example","count_blank","count_block_loop","count_experiment","count_finished","count_fixdot","count_instructions","count_kb_response","count_logger","count_new_advanced_delay","count_stop_signal","count_stop_signal_coroutines","count_target","count_trial_sequence","datetime","delay_new_advanced_delay","description","direction","disable_garbage_collection","experiment_file","experiment_path","font_bold","font_family","font_italic","font_size","font_underline","foreground","form_clicks","fullscreen","height","keyboard_backend","live_row","live_row_block_loop","logfile","mouse_backend","opensesame_codename","opensesame_version","repeat_cycle","response","response_finished","response_instructions","response_kb_response","response_target","response_time","response_time_finished","response_time_instructions","response_time_kb_response","response_time_target","round_decimals","sampler_backend","sound_buf_size","sound_channels","sound_freq","sound_sample_size","start","stop_after","stopcode","subject_nr","subject_parity","target","targetcode","time_CodeSettings","time_ErrorFeedback","time_NoError","time_ResponseCalc","time_ResponseGiven","time_SetlinesZero","time_StartFixdot","time_StartStopsignal","time_StartTarget","time_about_this_example","time_blank","time_block_loop","time_experiment","time_finished","time_fixdot","time_instructions","time_kb_response","time_logger","time_new_advanced_delay","time_stop_signal","time_target","time_trial_sequence","title","total_correct","total_response_time","total_responses","uniform_coordinates","width"
"1","10","133","255","100","100","573.6342999989574","573.6342999989574","black","no","psycho","psycho","psycho","0","uniform","14067","593.9484000009543","0.042222819364537874","1","undefined","1","left","0","0","0","0","0","1","0","NA","0","0","0","0","0","0","0","0","0","0","0","NA","0","0","0","Tue Nov 30 14:28:33 2021","397","Loosely based on Logan (1984) Journal of Experimental Psychology: Human Perception and Performance","1","yes","StopSignalTask.osexp","C:\Users\user\Documents\GitHub\StopTaskBCN","no","mono","no","18","no","white","no","yes","768","psycho","0","0","C:/Users/user/Documents/GitHub/StopTaskBCN/subject-3.csv","psycho","Lentiform Loewenfeld","3.3.9","0","left","NA","down","left","NA","573.6342999989574","NA","86658.6540999997","573.6342999989574","NA","2","psycho","1024","2","48000","-16","experiment","","0","3","odd","left","2","90198.01899999948","NA","91589.01799999876","91413.62239999944","NA","NA","NA","NA","NA","NA","91455.77669999875","90198.05009999982","3497.113999999783","NA","90372.49479999991","3538.5286000000633","90839.5273999995","92482.31390000001","90372.74039999829","NA","90839.22549999988","90326.81479999883","Stop-Signal Task","1","573.6342999989574","1","yes","1024"
"1","10","133","255","100","100","529.2183499996099","529.2183499996099","black","no","psycho","psycho","psycho","0","uniform","11961","499.0226999998413","0.04172081765737324","1","undefined","1","left","0","1","1","1","1","2","1","NA","1","0","1","0","0","0","1","0","1","1","1","NA","1","1","1","Tue Nov 30 14:28:33 2021","308","Loosely based on Logan (1984) Journal of Experimental Psychology: Human Perception and Performance","1","yes","StopSignalTask.osexp","C:\Users\user\Documents\GitHub\StopTaskBCN","no","mono","no","18","no","white","no","yes","768","psycho","1","1","C:/Users/user/Documents/GitHub/StopTaskBCN/subject-3.csv","psycho","Lentiform Loewenfeld","3.3.9","0","left","NA","down","left","NA","484.8024000002624","NA","86658.6540999997","484.8024000002624","NA","2","psycho","1024","2","48000","-16","experiment","","0","3","odd","left","2","90198.01899999948","NA","93722.35029999865","93557.63589999879","NA","NA","NA","NA","NA","NA","93589.01689999948","90198.05009999982","3497.113999999783","NA","92722.44389999832","3538.5286000000633","93072.3771999983","94633.34719999875","92722.51289999986","NA","93072.32149999982","92685.5844999991","Stop-Signal Task","2","1058.4366999992199","2","yes","1024"
"1","10","131","255","100","100","511.90183333346795","511.90183333346795","black","no","psycho","psycho","psycho","0","uniform","11758","494.02830000144604","0.04201635482237166","1","undefined","1","right","0","2","2","2","2","3","2","NA","2","0","2","0","0","0","2","0","2","2","2","NA","2","2","2","Tue Nov 30 14:28:33 2021","353","Loosely based on Logan (1984) Journal of Experimental Psychology: Human Perception and Performance","0","yes","StopSignalTask.osexp","C:\Users\user\Documents\GitHub\StopTaskBCN","no","mono","no","18","no","white","no","yes","768","psycho","2","2","C:/Users/user/Documents/GitHub/StopTaskBCN/subject-3.csv","psycho","Lentiform Loewenfeld","3.3.9","0","right","NA","down","right","NA","477.268800001184","NA","86658.6540999997","477.268800001184","NA","2","psycho","1024","2","48000","-16","experiment","","0","3","odd","right","8","90198.01899999948","NA","95905.78529999948","95733.62539999835","NA","NA","NA","NA","NA","NA","95772.37999999852","90198.05009999982","3497.113999999783","NA","94855.7409999994","3538.5286000000633","95255.90389999888","96810.3216999989","94855.99099999854","NA","95255.69659999928","94806.79899999996","Stop-Signal Task","3","1535.7055000004038","3","yes","1024"
"1","10","131","255","100","100","481.05230000010124","481.05230000010124","black","no","psycho","psycho","psycho","0","uniform","9552","413.07360000064364","0.043244723618157836","1","undefined","1","right","0","3","3","3","3","4","3","NA","3","0","3","0","0","0","3","0","3","3","3","NA","3","3","3","Tue Nov 30 14:28:33 2021","356","Loosely based on Logan (1984) Journal of Experimental Psychology: Human Perception and Performance","0","yes","StopSignalTask.osexp","C:\Users\user\Documents\GitHub\StopTaskBCN","no","mono","no","18","no","white","no","yes","768","psycho","3","3","C:/Users/user/Documents/GitHub/StopTaskBCN/subject-3.csv","psycho","Lentiform Loewenfeld","3.3.9","0","right","NA","down","right","NA","388.5037000000011","NA","86658.6540999997","388.5037000000011","NA","2","psycho","1024","2","48000","-16","experiment","","0","3","odd","right","8","90198.01899999948","NA","98039.0241999994","97861.64719999942","NA","NA","NA","NA","NA","NA","97905.72629999951","90198.05009999982","3497.113999999783","NA","97072.37069999974","3538.5286000000633","97472.68889999941","98945.49489999918","97072.58609999917","NA","97472.41629999917","97030.7144999988","Stop-Signal Task","4","1924.209200000405","4","yes","1024"
"1","10","131","255","100","100","471.48572000005515","471.48572000005515","black","no","psycho","psycho","psycho","0","uniform","10728","452.0410000004631","0.04213655853844735","1","undefined","1","right","0","4","4","4","4","5","4","NA","4","0","4","0","0","0","4","0","4","4","4","NA","4","4","4","Tue Nov 30 14:28:33 2021","349","Loosely based on Logan (1984) Journal of Experimental Psychology: Human Perception and Performance","0","yes","StopSignalTask.osexp","C:\Users\user\Documents\GitHub\StopTaskBCN","no","mono","no","18","no","white","no","yes","768","psycho","4","4","C:/Users/user/Documents/GitHub/StopTaskBCN/subject-3.csv","psycho","Lentiform Loewenfeld","3.3.9","0","right","NA","down","right","NA","433.2193999998708","NA","86658.6540999997","433.2193999998708","NA","2","psycho","1024","2","48000","-16","experiment","","0","3","odd","right","8","90198.01899999948","NA","100172.37079999904","99989.60399999851","NA","NA","NA","NA","NA","NA","100039.06199999983","90198.05009999982","3497.113999999783","NA","99155.72780000002","3538.5286000000633","99555.88759999955","101071.69459999932","99155.94959999908","NA","99555.6850999983","99111.9052999984","Stop-Signal Task","5","2357.4286000002758","5","yes","1024"
"1","10","133","255","100","100","461.6578833335249","461.6578833335249","black","no","psycho","psycho","psycho","0","uniform","10266","434.87679999998363","0.04236088057665923","1","undefined","1","left","0","5","5","5","5","6","5","NA","5","0","5","0","0","0","5","0","5","5","5","NA","5","5","5","Tue Nov 30 14:28:33 2021","355","Loosely based on Logan (1984) Journal of Experimental Psychology: Human Perception and Performance","1","yes","StopSignalTask.osexp","C:\Users\user\Documents\GitHub\StopTaskBCN","no","mono","no","18","no","white","no","yes","768","psycho","5","5","C:/Users/user/Documents/GitHub/StopTaskBCN/subject-3.csv","psycho","Lentiform Loewenfeld","3.3.9","0","left","NA","down","left","NA","412.51870000087365","NA","86658.6540999997","412.51870000087365","NA","2","psycho","1024","2","48000","-16","experiment","","0","3","odd","left","2","90198.01899999948","NA","102255.71799999852","102085.64839999963","NA","NA","NA","NA","NA","NA","102122.47399999978","90198.05009999982","3497.113999999783","NA","101272.39399999962","3538.5286000000633","101672.64669999895","103152.97269999974","101272.4591999995","NA","101672.42239999905","101233.05639999853","Stop-Signal Task","6","2769.9473000011494","6","yes","1024"
"1","10","133","255","100","100","451.5894142857308","451.5894142857308","black","no","psycho","psycho","psycho","0","uniform","9665","418.0852000008599","0.043257651319281935","1","undefined","1","left","0","6","6","6","6","7","6","NA","6","0","6","0","0","0","6","0","6","6","6","NA","6","6","6","Tue Nov 30 14:28:33 2021","349","Loosely based on Logan (1984) Journal of Experimental Psychology: Human Perception and Performance","1","yes","StopSignalTask.osexp","C:\Users\user\Documents\GitHub\StopTaskBCN","no","mono","no","18","no","white","no","yes","768","psycho","6","6","C:/Users/user/Documents/GitHub/StopTaskBCN/subject-3.csv","psycho","Lentiform Loewenfeld","3.3.9","0","left","NA","down","left","NA","391.1785999989661","NA","86658.6540999997","391.1785999989661","NA","2","psycho","1024","2","48000","-16","experiment","","0","3","odd","left","2","90198.01899999948","NA","104372.41879999965","104197.65169999846","NA","NA","NA","NA","NA","NA","104239.07969999891","90198.05009999982","3497.113999999783","NA","103405.77479999956","3538.5286000000633","103805.98629999986","105275.45419999842","103405.85439999995","NA","103805.77859999903","103369.34139999903","Stop-Signal Task","7","3161.1259000001155","7","yes","1024"
"1","10","133","255","100","100","437.4585750001643","437.4585750001643","black","no","psycho","psycho","psycho","0","uniform","8442","363.58020000079705","0.043068017057663714","1","undefined","1","left","0","7","7","7","7","8","7","NA","7","0","7","0","0","0","7","0","7","7","7","NA","7","7","7","Tue Nov 30 14:28:33 2021","390","Loosely based on Logan (1984) Journal of Experimental Psychology: Human Perception and Performance","1","yes","StopSignalTask.osexp","C:\Users\user\Documents\GitHub\StopTaskBCN","no","mono","no","18","no","white","no","yes","768","psycho","7","7","C:/Users/user/Documents/GitHub/StopTaskBCN/subject-3.csv","psycho","Lentiform Loewenfeld","3.3.9","0","left","NA","down","left","NA","338.5427000011987","NA","86658.6540999997","338.5427000011987","NA","2","psycho","1024","2","48000","-16","experiment","","0","3","odd","left","2","90198.01899999948","NA","106439.05459999951","106261.63579999957","NA","NA","NA","NA","NA","NA","106305.7493999986","90198.05009999982","3497.113999999783","NA","105472.42339999866","3538.5286000000633","105922.61559999861","107337.71249999882","105472.49209999973","NA","105922.40579999998","105437.26019999849","Stop-Signal Task","8","3499.668600001314","8","yes","1024"
"1","10","131","255","100","100","426.11446666685674","426.11446666685674","black","no","psycho","psycho","psycho","0","uniform","8348","345.66110000014305","0.04140645663633721","1","undefined","1","right","0","8","8","8","8","9","8","NA","8","0","8","0","0","0","8","0","8","8","8","NA","8","8","8","Tue Nov 30 14:28:33 2021","390","Loosely based on Logan (1984) Journal of Experimental Psychology: Human Perception and Performance","0","yes","StopSignalTask.osexp","C:\Users\user\Documents\GitHub\StopTaskBCN","no","mono","no","18","no","white","no","yes","768","psycho","8","8","C:/Users/user/Documents/GitHub/StopTaskBCN/subject-3.csv","psycho","Lentiform Loewenfeld","3.3.9","0","right","NA","down","right","NA","335.3616000003967","NA","86658.6540999997","335.3616000003967","NA","2","psycho","1024","2","48000","-16","experiment","","0","3","odd","right","8","90198.01899999948","NA","108522.42549999937","108341.60639999936","NA","NA","NA","NA","NA","NA","108389.11299999927","90198.05009999982","3497.113999999783","NA","107572.45089999924","3538.5286000000633","108005.77989999874","109422.67779999929","107572.53369999853","NA","108005.72579999971","107532.98779999932","Stop-Signal Task","9","3835.030200001711","9","yes","1024"
"1","10","131","255","100","100","425.1463900001909","425.1463900001909","black","no","psycho","psycho","psycho","0","uniform","10187","439.10440000036033","0.043104387945456006","1","undefined","1","right","0","9","9","9","9","10","9","NA","9","0","9","0","0","0","9","0","9","9","9","NA","9","9","9","Tue Nov 30 14:28:33 2021","303","Loosely based on Logan (1984) Journal of Experimental Psychology: Human Perception and Performance","0","yes","StopSignalTask.osexp","C:\Users\user\Documents\GitHub\StopTaskBCN","no","mono","no","18","no","white","no","yes","768","psycho","9","9","C:/Users/user/Documents/GitHub/StopTaskBCN/subject-3.csv","psycho","Lentiform Loewenfeld","3.3.9","0","right","NA","down","right","NA","416.43370000019786","NA","86658.6540999997","416.43370000019786","NA","2","psycho","1024","2","48000","-16","experiment","","0","3","odd","right","8","90198.01899999948","NA","110555.75089999911","110389.63009999861","NA","NA","NA","NA","NA","NA","110422.40929999934","90198.05009999982","3497.113999999783","NA","109622.45179999991","3538.5286000000633","109972.66399999899","111457.09579999857","109622.523","NA","109972.43519999938","109583.99709999867","Stop-Signal Task","10","4251.463900001909","10","yes","1024"
"1","10","133","255","100","100","428.5295363637984","428.5295363637984","black","no","psycho","psycho","psycho","0","uniform","11512","485.06149999957415","0.04213529360663431","1","undefined","1","left","0","10","10","10","10","11","10","NA","10","0","10","0","0","0","10","0","10","10","10","NA","10","10","10","Tue Nov 30 14:28:33 2021","303","Loosely based on Logan (1984) Journal of Experimental Psychology: Human Perception and Performance","1","yes","StopSignalTask.osexp","C:\Users\user\Documents\GitHub\StopTaskBCN","no","mono","no","18","no","white","no","yes","768","psycho","10","10","C:/Users/user/Documents/GitHub/StopTaskBCN/subject-3.csv","psycho","Lentiform Loewenfeld","3.3.9","0","left","NA","down","left","NA","462.36099999987346","NA","86658.6540999997","462.36099999987346","NA","2","psycho","1024","2","48000","-16","experiment","","0","3","odd","left","2","90198.01899999948","NA","112655.75360000003","112485.60179999913","NA","NA","NA","NA","NA","NA","112522.55629999854","90198.05009999982","3497.113999999783","NA","111672.49939999965","3538.5286000000633","112022.74859999852","113550.71449999923","111672.71769999934","NA","112022.48889999828","111620.3463999991","Stop-Signal Task","11","4713.824900001782","11","yes","1024"
"1","10","131","255","100","100","421.3541416669007","421.3541416669007","black","no","psycho","psycho","psycho","0","uniform","8471","361.0895999991044","0.0426265612087244","1","undefined","1","right","0","11","11","11","11","12","11","NA","11","0","11","0","0","0","11","0","11","11","11","NA","11","11","11","Tue Nov 30 14:28:33 2021","377","Loosely based on Logan (1984) Journal of Experimental Psychology: Human Perception and Performance","0","yes","StopSignalTask.osexp","C:\Users\user\Documents\GitHub\StopTaskBCN","no","mono","no","18","no","white","no","yes","768","psycho","11","11","C:/Users/user/Documents/GitHub/StopTaskBCN/subject-3.csv","psycho","Lentiform Loewenfeld","3.3.9","0","right","NA","down","right","NA","342.4248000010266","NA","86658.6540999997","342.4248000010266","NA","2","psycho","1024","2","48000","-16","experiment","","0","3","odd","right","8","90198.01899999948","NA","114739.11559999942","114565.61559999864","NA","NA","NA","NA","NA","NA","114605.79479999979","90198.05009999982","3497.113999999783","NA","113789.18059999887","3538.5286000000633","114222.64099999848","115628.66949999989","113789.42800000004","NA","114222.43559999879","113742.02829999922","Stop-Signal Task","12","5056.249700002809","12","yes","1024"
"1","10","131","255","100","100","421.3853384618023","421.3853384618023","black","no","psycho","psycho","psycho","0","uniform","10506","441.8616999992082","0.042058033504588636","1","undefined","1","right","0","12","12","12","12","13","12","NA","12","0","12","0","0","0","12","0","12","12","12","NA","12","12","12","Tue Nov 30 14:28:33 2021","345","Loosely based on Logan (1984) Journal of Experimental Psychology: Human Perception and Performance","0","yes","StopSignalTask.osexp","C:\Users\user\Documents\GitHub\StopTaskBCN","no","mono","no","18","no","white","no","yes","768","psycho","12","12","C:/Users/user/Documents/GitHub/StopTaskBCN/subject-3.csv","psycho","Lentiform Loewenfeld","3.3.9","0","right","NA","down","right","NA","421.7597000006208","NA","86658.6540999997","421.7597000006208","NA","2","psycho","1024","2","48000","-16","experiment","","0","3","odd","right","8","90198.01899999948","NA","116839.12759999839","116661.63719999895","NA","NA","NA","NA","NA","NA","116705.79759999964","90198.05009999982","3497.113999999783","NA","115839.15049999996","3538.5286000000633","116239.30829999881","117741.97679999997","115839.36859999994","NA","116239.1050999995","115789.32189999978","Stop-Signal Task","13","5478.00940000343","13","yes","1024"
"1","10","133","255","100","100","416.3599714289116","416.3599714289116","black","no","psycho","psycho","psycho","0","uniform","8742","377.11229999877105","0.04313798901839065","1","undefined","1","left","0","13","13","13","13","14","13","NA","13","0","13","0","0","0","13","0","13","13","13","NA","13","13","13","Tue Nov 30 14:28:33 2021","384","Loosely based on Logan (1984) Journal of Experimental Psychology: Human Perception and Performance","1","yes","StopSignalTask.osexp","C:\Users\user\Documents\GitHub\StopTaskBCN","no","mono","no","18","no","white","no","yes","768","psycho","13","13","C:/Users/user/Documents/GitHub/StopTaskBCN/subject-3.csv","psycho","Lentiform Loewenfeld","3.3.9","0","left","NA","down","left","NA","351.03020000133256","NA","86658.6540999997","351.03020000133256","NA","2","psycho","1024","2","48000","-16","experiment","","0","3","odd","left","2","90198.01899999948","NA","118939.11939999998","118757.58829999904","NA","NA","NA","NA","NA","NA","118805.82539999887","90198.05009999982","3497.113999999783","NA","117972.5484999999","3538.5286000000633","118406.0204999987","119838.91760000006","117972.85249999914","NA","118405.81810000003","117925.95149999943","Stop-Signal Task","14","5829.039600004762","14","yes","1024"
"1","10","131","255","100","100","411.79434666701127","411.79434666701127","black","no","psycho","psycho","psycho","0","uniform","8678","359.11959999975807","0.041382761004811947","1","undefined","1","right","0","14","14","14","14","15","14","NA","14","0","14","0","0","0","14","0","14","14","14","NA","14","14","14","Tue Nov 30 14:28:33 2021","368","Loosely based on Logan (1984) Journal of Experimental Psychology: Human Perception and Performance","0","yes","StopSignalTask.osexp","C:\Users\user\Documents\GitHub\StopTaskBCN","no","mono","no","18","no","white","no","yes","768","psycho","14","14","C:/Users/user/Documents/GitHub/StopTaskBCN/subject-3.csv","psycho","Lentiform Loewenfeld","3.3.9","0","right","NA","down","right","NA","347.87560000040685","NA","86658.6540999997","347.87560000040685","NA","2","psycho","1024","2","48000","-16","experiment","","0","3","odd","right","8","90198.01899999948","NA","121005.81160000002","120837.58639999905","NA","NA","NA","NA","NA","NA","120872.47749999915","90198.05009999982","3497.113999999783","NA","120089.26289999908","3538.5286000000633","120489.17899999833","121908.05099999852","120089.52809999937","NA","120489.1263999998","120036.69439999976","Stop-Signal Task","15","6176.915200005169","15","yes","1024"
"1","10","131","255","100","100","409.57483750037227","409.57483750037227","black","no","psycho","psycho","psycho","0","uniform","9245","405.6903999990027","0.04388214169810738","1","undefined","1","right","0","15","15","15","15","16","15","NA","15","0","15","0","0","0","15","0","15","15","15","NA","15","15","15","Tue Nov 30 14:28:33 2021","340","Loosely based on Logan (1984) Journal of Experimental Psychology: Human Perception and Performance","0","yes","StopSignalTask.osexp","C:\Users\user\Documents\GitHub\StopTaskBCN","no","mono","no","18","no","white","no","yes","768","psycho","15","15","C:/Users/user/Documents/GitHub/StopTaskBCN/subject-3.csv","psycho","Lentiform Loewenfeld","3.3.9","0","right","NA","down","right","NA","376.28220000078727","NA","86658.6540999997","376.28220000078727","NA","2","psycho","1024","2","48000","-16","experiment","","0","3","odd","right","8","90198.01899999948","NA","123122.49299999894","122949.60679999895","NA","NA","NA","NA","NA","NA","122989.18019999837","90198.05009999982","3497.113999999783","NA","122172.5179999994","3538.5286000000633","122572.78809999843","124021.27899999869","122172.74079999879","NA","122572.53299999866","122122.28719999985","Stop-Signal Task","16","6553.197400005956","16","yes","1024"
"1","10","131","255","100","100","406.59681176507814","406.59681176507814","black","no","psycho","psycho","psycho","0","uniform","8938","385.120700000698","0.04308801745364712","1","undefined","1","right","0","16","16","16","16","17","16","NA","16","0","16","0","0","0","16","0","16","16","16","NA","16","16","16","Tue Nov 30 14:28:33 2021","330","Loosely based on Logan (1984) Journal of Experimental Psychology: Human Perception and Performance","0","yes","StopSignalTask.osexp","C:\Users\user\Documents\GitHub\StopTaskBCN","no","mono","no","18","no","white","no","yes","768","psycho","16","16","C:/Users/user/Documents/GitHub/StopTaskBCN/subject-3.csv","psycho","Lentiform Loewenfeld","3.3.9","0","right","NA","down","right","NA","358.9484000003722","NA","86658.6540999997","358.9484000003722","NA","2","psycho","1024","2","48000","-16","experiment","","0","3","odd","right","8","90198.01899999948","NA","125139.1965999992","124965.57279999979","NA","NA","NA","NA","NA","NA","125005.83589999951","90198.05009999982","3497.113999999783","NA","124222.51049999977","3538.5286000000633","124606.09899999872","126038.09069999988","124222.57639999953","NA","124605.87749999831","124183.68819999887","Stop-Signal Task","17","6912.1458000063285","17","yes","1024"
"1","10","133","255","100","100","417.22138888922524","417.22138888922524","black","no","psycho","psycho","psycho","0","uniform","14802","612.1505999999499","0.04135593838670112","1","undefined","1","left","0","17","17","17","17","18","17","NA","17","0","17","0","0","0","17","0","17","17","17","NA","17","17","17","Tue Nov 30 14:28:33 2021","350","Loosely based on Logan (1984) Journal of Experimental Psychology: Human Perception and Performance","1","yes","StopSignalTask.osexp","C:\Users\user\Documents\GitHub\StopTaskBCN","no","mono","no","18","no","white","no","yes","768","psycho","17","17","C:/Users/user/Documents/GitHub/StopTaskBCN/subject-3.csv","psycho","Lentiform Loewenfeld","3.3.9","0","left","NA","down","left","NA","597.8391999997257","NA","86658.6540999997","597.8391999997257","NA","2","psycho","1024","2","48000","-16","experiment","","0","3","odd","left","2","90198.01899999948","NA","127405.84689999923","127237.58669999916","NA","NA","NA","NA","NA","NA","127272.49179999853","90198.05009999982","3497.113999999783","NA","126255.87019999875","3538.5286000000633","126639.21699999992","128312.28089999968","126255.94229999842","NA","126639.15989999987","126217.30369999932","Stop-Signal Task","18","7509.985000006054","18","yes","1024"
"1","10","138","255","94.73684210526316","94.73684210526316","412.7620105266128","412.7620105266128","black","no","psycho","psycho","psycho","0","uniform","5401","344.8772000010649","0.06385432327366505","0","undefined","0","None","0","18","18","18","18","19","18","NA","18","0","18","0","0","0","18","0","18","18","18","0","18","18","18","Tue Nov 30 14:28:33 2021","300","Loosely based on Logan (1984) Journal of Experimental Psychology: Human Perception and Performance","0","yes","StopSignalTask.osexp","C:\Users\user\Documents\GitHub\StopTaskBCN","no","mono","no","18","no","white","no","yes","768","psycho","18","18","C:/Users/user/Documents/GitHub/StopTaskBCN/subject-3.csv","psycho","Lentiform Loewenfeld","3.3.9","0","right","NA","down","right","NA","332.4931999995897","NA","86658.6540999997","332.4931999995897","NA","2","psycho","1024","2","48000","-16","experiment","100","8","3","odd","right","10","90198.01899999948","129372.53879999844","127405.84689999923","129205.61129999987","NA","NA","NA","NA","NA","NA","129239.17099999926","90198.05009999982","3497.113999999783","NA","128522.5475999996","3538.5286000000633","128872.55659999937","130267.79599999827","128522.77279999907","128989.18479999884","128872.50390000008","128473.4443999987","Stop-Signal Task","18","7842.478200005644","19","yes","1024"
"1","10","131","255","95","95","412.74602000021406","412.74602000021406","black","no","psycho","psycho","psycho","0","uniform","10273","428.17710000055376","0.04167985009252933","1","undefined","1","right","0","19","19","19","19","20","19","NA","19","0","19","0","0","0","19","0","19","19","19","0","19","19","19","Tue Nov 30 14:28:33 2021","332","Loosely based on Logan (1984) Journal of Experimental Psychology: Human Perception and Performance","0","yes","StopSignalTask.osexp","C:\Users\user\Documents\GitHub\StopTaskBCN","no","mono","no","18","no","white","no","yes","768","psycho","19","19","C:/Users/user/Documents/GitHub/StopTaskBCN/subject-3.csv","psycho","Lentiform Loewenfeld","3.3.9","0","right","NA","down","right","NA","412.4421999986371","NA","86658.6540999997","412.4421999986371","NA","2","psycho","1024","2","48000","-16","experiment","","0","3","odd","right","8","90198.01899999948","129372.53879999844","131455.84619999863","131285.6009999996","NA","NA","NA","NA","NA","NA","131322.6724999986","90198.05009999982","3497.113999999783","NA","130489.24679999982","3538.5286000000633","130872.5746","132349.00769999877","130489.34349999945","128989.18479999884","130872.52129999979","130448.58909999857","Stop-Signal Task","19","8254.920400004281","20","yes","1024"
"1","10","138","255","90.47619047619048","90.47619047619048","413.2705571430838","413.2705571430838","black","no","psycho","psycho","psycho","0","uniform","7673","437.8498999994772","0.05706371692942489","0","undefined","0","None","0","20","20","20","20","21","20","NA","20","0","20","0","0","0","20","0","20","20","20","1","20","20","20","Tue Nov 30 14:28:33 2021","320","Loosely based on Logan (1984) Journal of Experimental Psychology: Human Perception and Performance","0","yes","StopSignalTask.osexp","C:\Users\user\Documents\GitHub\StopTaskBCN","no","mono","no","18","no","white","no","yes","768","psycho","20","20","C:/Users/user/Documents/GitHub/StopTaskBCN/subject-3.csv","psycho","Lentiform Loewenfeld","3.3.9","0","right","NA","down","right","NA","423.7613000004785","NA","86658.6540999997","423.7613000004785","NA","2","psycho","1024","2","48000","-16","experiment","100","8","3","odd","right","10","90198.01899999948","133589.19749999949","131455.84619999863","133413.59459999876","NA","NA","NA","NA","NA","NA","133455.91389999934","90198.05009999982","3497.113999999783","NA","132622.64849999885","3538.5286000000633","132989.26739999844","134491.32549999922","132622.8906999986","133105.861","132989.19679999928","132571.4365999993","Stop-Signal Task","19","8678.68170000476","21","yes","1024"
"1","10","133","255","90.9090909090909","90.9090909090909","417.19179545477596","417.19179545477596","black","no","psycho","psycho","psycho","0","uniform","12327","523.1782999999123","0.04244165652631721","1","undefined","1","left","0","21","21","21","21","22","21","NA","21","0","21","0","0","0","21","0","21","21","21","1","21","21","21","Tue Nov 30 14:28:33 2021","356","Loosely based on Logan (1984) Journal of Experimental Psychology: Human Perception and Performance","1","yes","StopSignalTask.osexp","C:\Users\user\Documents\GitHub\StopTaskBCN","no","mono","no","18","no","white","no","yes","768","psycho","21","21","C:/Users/user/Documents/GitHub/StopTaskBCN/subject-3.csv","psycho","Lentiform Loewenfeld","3.3.9","0","left","NA","down","left","NA","499.5378000003111","NA","86658.6540999997","499.5378000003111","NA","2","psycho","1024","2","48000","-16","experiment","","0","3","odd","left","2","90198.01899999948","133589.19749999949","135772.77709999908","135589.60019999905","NA","NA","NA","NA","NA","NA","135622.59109999833","90198.05009999982","3497.113999999783","NA","134689.23089999953","3538.5286000000633","135089.44259999954","136663.00279999996","134689.30029999866","133105.861","135089.22999999957","134652.94769999856","Stop-Signal Task","20","9178.21950000507","22","yes","1024"
"1","10","131","255","91.30434782608695","91.30434782608695","433.5553434784347","433.5553434784347","black","no","psycho","psycho","psycho","0","uniform","19589","817.1710999995703","0.041715814998191346","1","undefined","1","right","0","22","22","22","22","23","22","NA","22","0","22","0","0","0","22","0","22","22","22","1","22","22","22","Tue Nov 30 14:28:33 2021","387","Loosely based on Logan (1984) Journal of Experimental Psychology: Human Perception and Performance","0","yes","StopSignalTask.osexp","C:\Users\user\Documents\GitHub\StopTaskBCN","no","mono","no","18","no","white","no","yes","768","psycho","22","22","C:/Users/user/Documents/GitHub/StopTaskBCN/subject-3.csv","psycho","Lentiform Loewenfeld","3.3.9","0","right","NA","down","right","NA","793.5533999989275","NA","86658.6540999997","793.5533999989275","NA","2","psycho","1024","2","48000","-16","experiment","","0","3","odd","right","8","90198.01899999948","133589.19749999949","138305.8796999994","138133.5782999995","NA","NA","NA","NA","NA","NA","138172.55789999943","90198.05009999982","3497.113999999783","NA","136905.9473999987","3538.5286000000633","137339.45649999985","139194.13069999975","136906.21529999952","133105.861","137339.24969999862","136853.7514999989","Stop-Signal Task","21","9971.772900003998","23","yes","1024"
"1","10","133","255","91.66666666666667","91.66666666666667","446.4162833335201","446.4162833335201","black","no","psycho","psycho","psycho","0","uniform","18270","765.1437000003934","0.041879786535325314","1","undefined","1","left","0","23","23","23","23","24","23","NA","23","0","23","0","0","0","23","0","23","23","23","1","23","23","23","Tue Nov 30 14:28:33 2021","359","Loosely based on Logan (1984) Journal of Experimental Psychology: Human Perception and Performance","1","yes","StopSignalTask.osexp","C:\Users\user\Documents\GitHub\StopTaskBCN","no","mono","no","18","no","white","no","yes","768","psycho","23","23","C:/Users/user/Documents/GitHub/StopTaskBCN/subject-3.csv","psycho","Lentiform Loewenfeld","3.3.9","0","left","NA","down","left","NA","742.2179000004835","NA","86658.6540999997","742.2179000004835","NA","2","psycho","1024","2","48000","-16","experiment","","0","3","odd","left","2","90198.01899999948","133589.19749999949","140739.2549999986","140565.57040000008","NA","NA","NA","NA","NA","NA","140605.91059999933","90198.05009999982","3497.113999999783","NA","139405.93939999962","3538.5286000000633","139822.80099999844","141631.43429999944","139406.0096999983","133105.861","139822.5930999997","139366.79719999846","Stop-Signal Task","22","10713.990800004482","24","yes","1024"
"1","10","133","255","92","92","453.0192440001713","453.0192440001713","black","no","psycho","psycho","psycho","0","uniform","15069","632.1556000002602","0.04195073329353376","1","undefined","1","left","0","24","24","24","24","25","24","NA","24","0","24","0","0","0","24","0","24","24","24","1","24","24","24","Tue Nov 30 14:28:33 2021","394","Loosely based on Logan (1984) Journal of Experimental Psychology: Human Perception and Performance","1","yes","StopSignalTask.osexp","C:\Users\user\Documents\GitHub\StopTaskBCN","no","mono","no","18","no","white","no","yes","768","psycho","24","24","C:/Users/user/Documents/GitHub/StopTaskBCN/subject-3.csv","psycho","Lentiform Loewenfeld","3.3.9","0","left","NA","down","left","NA","611.4902999998012","NA","86658.6540999997","611.4902999998012","NA","2","psycho","1024","2","48000","-16","experiment","","0","3","odd","left","2","90198.01899999948","133589.19749999949","143072.59439999872","142901.5550999993","NA","NA","NA","NA","NA","NA","142939.28589999996","90198.05009999982","3497.113999999783","NA","141839.27549999862","3538.5286000000633","142289.45269999895","143970.31900000002","141839.4894999983","133105.861","142289.24059999918","141798.0095999992","Stop-Signal Task","23","11325.481100004283","25","yes","1024"
"1","10","133","255","92.3076923076923","92.3076923076923","450.6852692309342","450.6852692309342","black","no","psycho","psycho","psycho","0","uniform","9739","403.1787000003387","0.041398367388883736","1","undefined","1","left","0","25","25","25","25","26","25","NA","25","0","25","0","0","0","25","0","25","25","25","1","25","25","25","Tue Nov 30 14:28:33 2021","344","Loosely based on Logan (1984) Journal of Experimental Psychology: Human Perception and Performance","1","yes","StopSignalTask.osexp","C:\Users\user\Documents\GitHub\StopTaskBCN","no","mono","no","18","no","white","no","yes","768","psycho","25","25","C:/Users/user/Documents/GitHub/StopTaskBCN/subject-3.csv","psycho","Lentiform Loewenfeld","3.3.9","0","left","NA","down","left","NA","392.3359000000055","NA","86658.6540999997","392.3359000000055","NA","2","psycho","1024","2","48000","-16","experiment","","0","3","odd","left","2","90198.01899999948","133589.19749999949","145139.2870999989","144965.58839999852","NA","NA","NA","NA","NA","NA","145005.98179999908","90198.05009999982","3497.113999999783","NA","144189.31059999886","3538.5286000000633","144572.63839999906","146034.6264999989","144189.5399999994","133105.861","144572.58619999993","144143.84309999878","Stop-Signal Task","24","11717.817000004288","26","yes","1024"
"1","10","139","255","92.5925925925926","92.5925925925926","507.64651111125215","507.64651111125215","black","no","psycho","psycho","psycho","0","uniform","46685","2000.0263000002014","0.04284087608439973","1","undefined","1","None","0","26","26","26","26","27","26","NA","26","0","26","0","0","0","26","0","26","26","26","2","26","26","26","Tue Nov 30 14:28:33 2021","347","Loosely based on Logan (1984) Journal of Experimental Psychology: Human Perception and Performance","0","yes","StopSignalTask.osexp","C:\Users\user\Documents\GitHub\StopTaskBCN","no","mono","no","18","no","white","no","yes","768","psycho","26","26","C:/Users/user/Documents/GitHub/StopTaskBCN/subject-3.csv","psycho","Lentiform Loewenfeld","3.3.9","0","None","NA","down","None","NA","1988.6387999995204","NA","86658.6540999997","1988.6387999995204","NA","2","psycho","1024","2","48000","-16","experiment","100","8","3","odd","right","10","90198.01899999948","133589.19749999949","148789.29819999938","148644.98939999976","NA","NA","NA","NA","NA","NA","148655.93219999937","90198.05009999982","3497.113999999783","NA","146256.17769999919","3538.5286000000633","146656.00669999912","149700.54949999938","146256.54329999996","146772.61809999982","146655.95489999943","146204.7853999993","Stop-Signal Task","25","13706.455800003809","27","yes","1024"
"1","10","138","255","89.28571428571429","89.28571428571429","501.5968214287173","501.5968214287173","black","no","psycho","psycho","psycho","0","uniform","5541","349.8089999993681","0.06313102328088217","0","undefined","0","None","0","27","27","27","27","28","27","NA","27","0","27","0","0","0","27","0","27","27","27","3","27","27","27","Tue Nov 30 14:28:33 2021","332","Loosely based on Logan (1984) Journal of Experimental Psychology: Human Perception and Performance","0","yes","StopSignalTask.osexp","C:\Users\user\Documents\GitHub\StopTaskBCN","no","mono","no","18","no","white","no","yes","768","psycho","27","27","C:/Users/user/Documents/GitHub/StopTaskBCN/subject-3.csv","psycho","Lentiform Loewenfeld","3.3.9","0","right","NA","down","right","NA","338.2552000002761","NA","86658.6540999997","338.2552000002761","NA","2","psycho","1024","2","48000","-16","experiment","100","8","3","odd","right","10","90198.01899999948","150839.3105999985","148789.29819999938","150661.57669999846","NA","NA","NA","NA","NA","NA","150706.06269999917","90198.05009999982","3497.113999999783","NA","149939.3328999995","3538.5286000000633","150322.66869999876","151739.92739999993","149939.5510999984","150439.39079999836","150322.61369999833","149894.8547","Stop-Signal Task","25","14044.711000004085","28","yes","1024"
"1","10","131","255","89.65517241379311","89.65517241379311","514.675565517383","514.675565517383","black","no","psycho","psycho","psycho","0","uniform","22001","891.2098000000697","0.04050769510477113","1","undefined","1","right","0","28","28","28","28","29","28","NA","28","0","28","0","0","0","28","0","28","28","28","3","28","28","28","Tue Nov 30 14:28:33 2021","333","Loosely based on Logan (1984) Journal of Experimental Psychology: Human Perception and Performance","0","yes","StopSignalTask.osexp","C:\Users\user\Documents\GitHub\StopTaskBCN","no","mono","no","18","no","white","no","yes","768","psycho","28","28","C:/Users/user/Documents/GitHub/StopTaskBCN/subject-3.csv","psycho","Lentiform Loewenfeld","3.3.9","0","right","NA","down","right","NA","880.8804000000237","NA","86658.6540999997","880.8804000000237","NA","2","psycho","1024","2","48000","-16","experiment","","0","3","odd","right","8","90198.01899999948","150839.3105999985","153405.98659999887","153237.5505","NA","NA","NA","NA","NA","NA","153272.62769999832","90198.05009999982","3497.113999999783","NA","151989.3551999994","3538.5286000000633","152356.06989999907","154302.17039999843","151989.43329999928","150439.39079999836","152356.01169999974","151949.26679999844","Stop-Signal Task","26","14925.591400004108","29","yes","1024"
"1","10","131","255","90","90","527.748970000114","527.748970000114","black","no","psycho","psycho","psycho","0","uniform","22545","920.1847000003909","0.04081546684410694","1","undefined","1","right","0","29","29","29","29","30","29","NA","29","0","29","0","0","0","29","0","29","29","29","3","29","29","29","Tue Nov 30 14:28:33 2021","370","Loosely based on Logan (1984) Journal of Experimental Psychology: Human Perception and Performance","0","yes","StopSignalTask.osexp","C:\Users\user\Documents\GitHub\StopTaskBCN","no","mono","no","18","no","white","no","yes","768","psycho","29","29","C:/Users/user/Documents/GitHub/StopTaskBCN/subject-3.csv","psycho","Lentiform Loewenfeld","3.3.9","0","right","NA","down","right","NA","906.8776999993133","NA","86658.6540999997","906.8776999993133","NA","2","psycho","1024","2","48000","-16","experiment","","0","3","odd","right","8","90198.01899999948","150839.3105999985","155989.3134999984","155813.5313999992","NA","NA","NA","NA","NA","NA","155856.13069999998","90198.05009999982","3497.113999999783","NA","154506.00119999945","3538.5286000000633","154906.04879999955","156880.1511999991","154506.06649999827","150439.39079999836","154905.9942999993","154465.96929999941","Stop-Signal Task","27","15832.469100003422","30","yes","1024"
"1","10","139","255","90.3225806451613","90.3225806451613","574.5643129033137","574.5643129033137","black","no","psycho","psycho","psycho","0","uniform","46419","2000.0068000008469","0.043085951873173635","1","undefined","1","None","0","30","30","30","30","31","30","NA","30","0","30","0","0","0","30","0","30","30","30","4","30","30","30","Tue Nov 30 14:28:33 2021","324","Loosely based on Logan (1984) Journal of Experimental Psychology: Human Perception and Performance","0","yes","StopSignalTask.osexp","C:\Users\user\Documents\GitHub\StopTaskBCN","no","mono","no","18","no","white","no","yes","768","psycho","30","30","C:/Users/user/Documents/GitHub/StopTaskBCN/subject-3.csv","psycho","Lentiform Loewenfeld","3.3.9","0","None","NA","down","None","NA","1979.0245999993058","NA","86658.6540999997","1979.0245999993058","NA","2","psycho","1024","2","48000","-16","experiment","100","8","3","odd","right","10","90198.01899999948","150839.3105999985","159622.65249999837","159468.95219999895","NA","NA","NA","NA","NA","NA","159489.3462","90198.05009999982","3497.113999999783","NA","157122.69349999953","3538.5286000000633","157489.56069999986","160517.27179999943","157122.9102999987","157605.9927999995","157489.34819999884","157079.13049999843","Stop-Signal Task","28","17811.493700002728","31","yes","1024"
"1","10","133","255","90.625","90.625","579.1775843750875","579.1775843750875","black","no","psycho","psycho","psycho","0","uniform","17888","736.1436000009999","0.04115292933815965","1","undefined","1","left","0","31","31","31","31","32","31","NA","31","0","31","0","0","0","31","0","31","31","31","4","31","31","31","Tue Nov 30 14:28:33 2021","325","Loosely based on Logan (1984) Journal of Experimental Psychology: Human Perception and Performance","1","yes","StopSignalTask.osexp","C:\Users\user\Documents\GitHub\StopTaskBCN","no","mono","no","18","no","white","no","yes","768","psycho","31","31","C:/Users/user/Documents/GitHub/StopTaskBCN/subject-3.csv","psycho","Lentiform Loewenfeld","3.3.9","0","left","NA","down","left","NA","722.1890000000712","NA","86658.6540999997","722.1890000000712","NA","2","psycho","1024","2","48000","-16","experiment","","0","3","odd","left","2","90198.01899999948","150839.3105999985","162022.7038999983","161845.508299999","NA","NA","NA","NA","NA","NA","161889.36239999929","90198.05009999982","3497.113999999783","NA","160756.06219999827","3538.5286000000633","161122.7261999993","162924.48539999896","160756.30219999948","157605.9927999995","161122.67239999893","160708.91649999976","Stop-Signal Task","29","18533.6827000028","32","yes","1024"
"1","10","133","255","90.9090909090909","90.9090909090909","589.7528030303806","589.7528030303806","black","no","psycho","psycho","psycho","0","uniform","22858","939.1973999991023","0.04108834543700684","1","undefined","1","left","0","32","32","32","32","33","32","NA","32","0","32","0","0","0","32","0","32","32","32","4","32","32","32","Tue Nov 30 14:28:33 2021","395","Loosely based on Logan (1984) Journal of Experimental Psychology: Human Perception and Performance","1","yes","StopSignalTask.osexp","C:\Users\user\Documents\GitHub\StopTaskBCN","no","mono","no","18","no","white","no","yes","768","psycho","32","32","C:/Users/user/Documents/GitHub/StopTaskBCN/subject-3.csv","psycho","Lentiform Loewenfeld","3.3.9","0","left","NA","down","left","NA","928.1597999997612","NA","86658.6540999997","928.1597999997612","NA","2","psycho","1024","2","48000","-16","experiment","","0","3","odd","left","2","90198.01899999948","150839.3105999985","164672.71009999968","164501.54929999917","NA","NA","NA","NA","NA","NA","164539.35879999882","90198.05009999982","3497.113999999783","NA","163139.39879999997","3538.5286000000633","163572.7704000001","165569.79629999842","163139.62119999997","157605.9927999995","163572.71399999992","163095.75469999982","Stop-Signal Task","30","19461.84250000256","33","yes","1024"
"1","10","133","255","91.17647058823529","91.17647058823529","601.3669029412875","601.3669029412875","black","no","psycho","psycho","psycho","0","uniform","24401","1009.9917999996105","0.04139141018809108","1","undefined","1","left","0","33","33","33","33","34","33","NA","33","0","33","0","0","0","33","0","33","33","33","4","33","33","33","Tue Nov 30 14:28:33 2021","328","Loosely based on Logan (1984) Journal of Experimental Psychology: Human Perception and Performance","1","yes","StopSignalTask.osexp","C:\Users\user\Documents\GitHub\StopTaskBCN","no","mono","no","18","no","white","no","yes","768","psycho","33","33","C:/Users/user/Documents/GitHub/StopTaskBCN/subject-3.csv","psycho","Lentiform Loewenfeld","3.3.9","0","left","NA","down","left","NA","984.6322000012151","NA","86658.6540999997","984.6322000012151","NA","2","psycho","1024","2","48000","-16","experiment","","0","3","odd","left","2","90198.01899999948","150839.3105999985","167322.72509999893","167141.5249999991","NA","NA","NA","NA","NA","NA","167189.4476999987","90198.05009999982","3497.113999999783","NA","165772.72999999876","3538.5286000000633","166156.26699999848","168211.20109999902","165772.79689999885","157605.9927999995","166156.0540999999","165735.86339999927","Stop-Signal Task","31","20446.474700003775","34","yes","1024"
"1","10","141","255","91.42857142857143","91.42857142857143","640.6402342858192","640.6402342858192","black","no","psycho","psycho","psycho","0","uniform","46760","2000.0051000006206","0.042771708725419605","1","undefined","1","None","0","34","34","34","34","35","34","NA","34","0","34","0","0","0","34","0","34","34","34","5","34","34","34","Tue Nov 30 14:28:33 2021","392","Loosely based on Logan (1984) Journal of Experimental Psychology: Human Perception and Performance","1","yes","StopSignalTask.osexp","C:\Users\user\Documents\GitHub\StopTaskBCN","no","mono","no","18","no","white","no","yes","768","psycho","34","34","C:/Users/user/Documents/GitHub/StopTaskBCN/subject-3.csv","psycho","Lentiform Loewenfeld","3.3.9","0","None","NA","down","None","NA","1975.9334999998973","NA","86658.6540999997","1975.9334999998973","NA","2","psycho","1024","2","48000","-16","experiment","100","8","3","odd","left","4","90198.01899999948","150839.3105999985","171072.74359999975","170915.9359999994","NA","NA","NA","NA","NA","NA","170939.41819999964","90198.05009999982","3497.113999999783","NA","168489.4542999991","3538.5286000000633","168939.61019999915","171970.02989999964","168489.69169999874","169056.06629999966","168939.40449999901","168441.50819999957","Stop-Signal Task","32","22422.408200003672","35","yes","1024"
"1","10","133","255","91.66666666666667","91.66666666666667","635.3760250001158","635.3760250001158","black","no","psycho","psycho","psycho","0","uniform","10905","468.1057999987388","0.04292579550653267","1","undefined","1","left","0","35","35","35","35","36","35","NA","35","0","35","0","0","0","35","0","35","35","35","5","35","35","35","Tue Nov 30 14:28:33 2021","394","Loosely based on Logan (1984) Journal of Experimental Psychology: Human Perception and Performance","1","yes","StopSignalTask.osexp","C:\Users\user\Documents\GitHub\StopTaskBCN","no","mono","no","18","no","white","no","yes","768","psycho","35","35","C:/Users/user/Documents/GitHub/StopTaskBCN/subject-3.csv","psycho","Lentiform Loewenfeld","3.3.9","0","left","NA","down","left","NA","451.1287000004959","NA","86658.6540999997","451.1287000004959","NA","2","psycho","1024","2","48000","-16","experiment","","0","3","odd","left","2","90198.01899999948","150839.3105999985","173322.7713999986","173141.50239999982","NA","NA","NA","NA","NA","NA","173189.48049999925","90198.05009999982","3497.113999999783","NA","172222.79789999995","3538.5286000000633","172689.76329999894","174219.88359999887","172223.09649999987","169056.06629999966","172689.46159999905","172179.58670000007","Stop-Signal Task","33","22873.53690000417","36","yes","1024"
"1","10","133","255","91.89189189189189","91.89189189189189","639.7176000001137","639.7176000001137","black","no","psycho","psycho","psycho","0","uniform","19874","812.2720999999437","0.04087109288517378","1","undefined","1","left","0","36","36","36","36","37","36","NA","36","0","36","0","0","0","36","0","36","36","36","5","36","36","36","Tue Nov 30 14:28:33 2021","385","Loosely based on Logan (1984) Journal of Experimental Psychology: Human Perception and Performance","1","yes","StopSignalTask.osexp","C:\Users\user\Documents\GitHub\StopTaskBCN","no","mono","no","18","no","white","no","yes","768","psycho","36","36","C:/Users/user/Documents/GitHub/StopTaskBCN/subject-3.csv","psycho","Lentiform Loewenfeld","3.3.9","0","left","NA","down","left","NA","796.0143000000389","NA","86658.6540999997","796.0143000000389","NA","2","psycho","1024","2","48000","-16","experiment","","0","3","odd","left","2","90198.01899999948","150839.3105999985","175839.4335999983","175669.53159999865","NA","NA","NA","NA","NA","NA","175706.07779999956","90198.05009999982","3497.113999999783","NA","174456.10869999835","3538.5286000000633","174872.82679999952","176735.3327000001","174456.37050000005","169056.06629999966","174872.7726999987","174410.00729999907","Stop-Signal Task","34","23669.551200004207","37","yes","1024"
"1","10","133","255","92.10526315789474","92.10526315789474","647.5864421053733","647.5864421053733","black","no","psycho","psycho","psycho","0","uniform","23384","950.2150999997102","0.04063526770440088","1","undefined","1","left","0","37","37","37","37","38","37","NA","37","0","37","0","0","0","37","0","37","37","37","5","37","37","37","Tue Nov 30 14:28:33 2021","311","Loosely based on Logan (1984) Journal of Experimental Psychology: Human Perception and Performance","1","yes","StopSignalTask.osexp","C:\Users\user\Documents\GitHub\StopTaskBCN","no","mono","no","18","no","white","no","yes","768","psycho","37","37","C:/Users/user/Documents/GitHub/StopTaskBCN/subject-3.csv","psycho","Lentiform Loewenfeld","3.3.9","0","left","NA","down","left","NA","938.7335999999777","NA","86658.6540999997","938.7335999999777","NA","2","psycho","1024","2","48000","-16","experiment","","0","3","odd","left","2","90198.01899999948","150839.3105999985","178422.84719999952","178245.5100999996","NA","NA","NA","NA","NA","NA","178289.57909999916","90198.05009999982","3497.113999999783","NA","176956.15550000002","3538.5286000000633","177306.14929999865","179313.28179999947","176956.23359999992","169056.06629999966","177306.08949999989","176914.2972999998","Stop-Signal Task","35","24608.284800004185","38","yes","1024"
"1","10","133","255","92.3076923076923","92.3076923076923","653.9857846155192","653.9857846155192","black","no","psycho","psycho","psycho","0","uniform","22303","916.014899999951","0.04107137604806309","1","undefined","1","left","0","38","38","38","38","39","38","NA","38","0","38","0","0","0","38","0","38","38","38","5","38","38","38","Tue Nov 30 14:28:33 2021","365","Loosely based on Logan (1984) Journal of Experimental Psychology: Human Perception and Performance","1","yes","StopSignalTask.osexp","C:\Users\user\Documents\GitHub\StopTaskBCN","no","mono","no","18","no","white","no","yes","768","psycho","38","38","C:/Users/user/Documents/GitHub/StopTaskBCN/subject-3.csv","psycho","Lentiform Loewenfeld","3.3.9","0","left","NA","down","left","NA","897.1608000010601","NA","86658.6540999997","897.1608000010601","NA","2","psycho","1024","2","48000","-16","experiment","","0","3","odd","left","2","90198.01899999948","150839.3105999985","181006.1028","180837.48839999863","NA","NA","NA","NA","NA","NA","180872.80159999864","90198.05009999982","3497.113999999783","NA","179522.80539999992","3538.5286000000633","179939.66439999896","181895.76269999996","179522.87429999886","169056.06629999966","179939.4573999998","179482.35919999934","Stop-Signal Task","36","25505.445600005245","39","yes","1024"
"1","10","133","255","92.5","92.5","661.515087500128","661.515087500128","black","no","psycho","psycho","psycho","0","uniform","23550","974.248900000006","0.0413693800424631","1","undefined","1","left","0","39","39","39","39","40","39","NA","39","0","39","0","0","0","39","0","39","39","39","5","39","39","39","Tue Nov 30 14:28:33 2021","320","Loosely based on Logan (1984) Journal of Experimental Psychology: Human Perception and Performance","1","yes","StopSignalTask.osexp","C:\Users\user\Documents\GitHub\StopTaskBCN","no","mono","no","18","no","white","no","yes","768","psycho","39","39","C:/Users/user/Documents/GitHub/StopTaskBCN/subject-3.csv","psycho","Lentiform Loewenfeld","3.3.9","0","left","NA","down","left","NA","955.1578999998746","NA","86658.6540999997","955.1578999998746","NA","2","psycho","1024","2","48000","-16","experiment","","0","3","odd","left","2","90198.01899999948","150839.3105999985","183639.53749999928","183445.54229999994","NA","NA","NA","NA","NA","NA","183489.4667999997","90198.05009999982","3497.113999999783","NA","182122.85519999932","3538.5286000000633","182489.66789999942","184536.21229999955","182123.1207000001","169056.06629999966","182489.46419999993","182075.9666999984","Stop-Signal Task","37","26460.60350000512","40","yes","1024"
"1","10","133","255","92.6829268292683","92.6829268292683","658.6389463415629","658.6389463415629","black","no","psycho","psycho","psycho","0","uniform","12580","559.2238000008219","0.044453402225820504","1","undefined","1","left","0","40","40","40","40","41","40","NA","40","0","40","0","0","0","40","0","40","40","40","5","40","40","40","Tue Nov 30 14:28:33 2021","336","Loosely based on Logan (1984) Journal of Experimental Psychology: Human Perception and Performance","1","yes","StopSignalTask.osexp","C:\Users\user\Documents\GitHub\StopTaskBCN","no","mono","no","18","no","white","no","yes","768","psycho","40","40","C:/Users/user/Documents/GitHub/StopTaskBCN/subject-3.csv","psycho","Lentiform Loewenfeld","3.3.9","0","left","NA","down","left","NA","543.59329999896","NA","86658.6540999997","543.59329999896","NA","2","psycho","1024","2","48000","-16","experiment","","0","3","odd","left","2","90198.01899999948","150839.3105999985","185889.48989999882","185717.4542999983","NA","NA","NA","NA","NA","NA","185756.15859999927","90198.05009999982","3497.113999999783","NA","184789.50309999892","3538.5286000000633","185173.20049999945","186786.08489999897","184789.5722999983","169056.06629999966","185173.03469999932","184746.9646999998","Stop-Signal Task","38","27004.19680000408","41","yes","1024"
"1","10","133","255","92.85714285714286","92.85714285714286","658.717907142955","658.717907142955","black","no","psycho","psycho","psycho","0","uniform","16347","674.2474000002549","0.04124594115129717","1","undefined","1","left","0","41","41","41","41","42","41","NA","41","0","41","0","0","0","41","0","41","41","41","5","41","41","41","Tue Nov 30 14:28:33 2021","379","Loosely based on Logan (1984) Journal of Experimental Psychology: Human Perception and Performance","1","yes","StopSignalTask.osexp","C:\Users\user\Documents\GitHub\StopTaskBCN","no","mono","no","18","no","white","no","yes","768","psycho","41","41","C:/Users/user/Documents/GitHub/StopTaskBCN/subject-3.csv","psycho","Lentiform Loewenfeld","3.3.9","0","left","NA","down","left","NA","661.9553000000305","NA","86658.6540999997","661.9553000000305","NA","2","psycho","1024","2","48000","-16","experiment","","0","3","odd","left","2","90198.01899999948","150839.3105999985","188256.1668999988","188085.48559999873","NA","NA","NA","NA","NA","NA","188122.81719999918","90198.05009999982","3497.113999999783","NA","187006.20249999885","3538.5286000000633","187422.86389999936","189158.48619999998","187006.28189999954","169056.06629999966","187422.80779999966","186965.6161999992","Stop-Signal Task","39","27666.15210000411","42","yes","1024"
"1","10","131","255","93.02325581395348","93.02325581395348","661.4075883721938","661.4075883721938","black","no","psycho","psycho","psycho","0","uniform","18503","800.2438999992446","0.043249413608563186","1","undefined","1","right","0","42","42","42","42","43","42","NA","42","0","42","0","0","0","42","0","42","42","42","5","42","42","42","Tue Nov 30 14:28:33 2021","385","Loosely based on Logan (1984) Journal of Experimental Psychology: Human Perception and Performance","0","yes","StopSignalTask.osexp","C:\Users\user\Documents\GitHub\StopTaskBCN","no","mono","no","18","no","white","no","yes","768","psycho","42","42","C:/Users/user/Documents/GitHub/StopTaskBCN/subject-3.csv","psycho","Lentiform Loewenfeld","3.3.9","0","right","NA","down","right","NA","774.3742000002239","NA","86658.6540999997","774.3742000002239","NA","2","psycho","1024","2","48000","-16","experiment","","0","3","odd","right","8","90198.01899999948","150839.3105999985","190739.51820000002","190565.50049999898","NA","NA","NA","NA","NA","NA","190606.21089999948","90198.05009999982","3497.113999999783","NA","189356.18660000002","3538.5286000000633","189790.45379999845","191648.7982999988","189356.2512999997","169056.06629999966","189789.80369999952","189318.50489999852","Stop-Signal Task","40","28440.526300004334","43","yes","1024"
"1","10","131","255","93.18181818181819","93.18181818181819","655.5064613637343","655.5064613637343","black","no","psycho","psycho","psycho","0","uniform","9776","423.21609999999055","0.04329133592471262","1","undefined","1","right","0","43","43","43","43","44","43","NA","43","0","43","0","0","0","43","0","43","43","43","5","43","43","43","Tue Nov 30 14:28:33 2021","393","Loosely based on Logan (1984) Journal of Experimental Psychology: Human Perception and Performance","0","yes","StopSignalTask.osexp","C:\Users\user\Documents\GitHub\StopTaskBCN","no","mono","no","18","no","white","no","yes","768","psycho","43","43","C:/Users/user/Documents/GitHub/StopTaskBCN/subject-3.csv","psycho","Lentiform Loewenfeld","3.3.9","0","right","NA","down","right","NA","401.7579999999725","NA","86658.6540999997","401.7579999999725","NA","2","psycho","1024","2","48000","-16","experiment","","0","3","odd","right","8","90198.01899999948","150839.3105999985","192906.18959999847","192725.4593999987","NA","NA","NA","NA","NA","NA","192772.91539999895","90198.05009999982","3497.113999999783","NA","191872.87990000006","3538.5286000000633","192323.04739999928","193808.18609999915","191873.1115999999","169056.06629999966","192322.84959999926","191821.09169999967","Stop-Signal Task","41","28842.284300004307","44","yes","1024"
"1","10","133","255","93.33333333333333","93.33333333333333","653.0176800000623","653.0176800000623","black","no","psycho","psycho","psycho","0","uniform","10533","559.2898000013374","0.05309881325371095","1","undefined","1","left","0","44","44","44","44","45","44","NA","44","0","44","0","0","0","44","0","44","44","44","5","44","44","44","Tue Nov 30 14:28:33 2021","301","Loosely based on Logan (1984) Journal of Experimental Psychology: Human Perception and Performance","1","yes","StopSignalTask.osexp","C:\Users\user\Documents\GitHub\StopTaskBCN","no","mono","no","18","no","white","no","yes","768","psycho","44","44","C:/Users/user/Documents/GitHub/StopTaskBCN/subject-3.csv","psycho","Lentiform Loewenfeld","3.3.9","0","left","NA","down","left","NA","543.5112999984995","NA","86658.6540999997","543.5112999984995","NA","2","psycho","1024","2","48000","-16","experiment","","0","3","odd","left","2","90198.01899999948","150839.3105999985","195089.5365999986","194917.4755999993","NA","NA","NA","NA","NA","NA","194956.27939999942","90198.05009999982","3497.113999999783","NA","194022.89269999892","3538.5286000000633","194373.27379999988","195996.75729999944","194023.11310000005","169056.06629999966","194373.11479999882","193973.36049999832","Stop-Signal Task","42","29385.795600002806","45","yes","1024"
"1","10","131","255","93.47826086956522","93.47826086956522","649.6988978261329","649.6988978261329","black","no","psycho","psycho","psycho","0","uniform","12384","523.2495000000345","0.042252059108529916","1","undefined","1","right","0","45","45","45","45","46","45","NA","45","0","45","0","0","0","45","0","45","45","45","5","45","45","45","Tue Nov 30 14:28:33 2021","357","Loosely based on Logan (1984) Journal of Experimental Psychology: Human Perception and Performance","0","yes","StopSignalTask.osexp","C:\Users\user\Documents\GitHub\StopTaskBCN","no","mono","no","18","no","white","no","yes","768","psycho","45","45","C:/Users/user/Documents/GitHub/StopTaskBCN/subject-3.csv","psycho","Lentiform Loewenfeld","3.3.9","0","right","NA","down","right","NA","500.35369999930845","NA","86658.6540999997","500.35369999930845","NA","2","psycho","1024","2","48000","-16","experiment","","0","3","odd","right","8","90198.01899999948","150839.3105999985","197339.53619999922","197157.44899999845","NA","NA","NA","NA","NA","NA","197206.22099999856","90198.05009999982","3497.113999999783","NA","196239.57689999952","3538.5286000000633","196656.42619999926","198240.4341999991","196239.6536999986","169056.06629999966","196656.218099999","196203.34509999884","Stop-Signal Task","43","29886.149300002115","46","yes","1024"
"1","10","131","255","93.61702127659575","93.61702127659575","646.3647787234321","646.3647787234321","black","no","psycho","psycho","psycho","0","uniform","12178","518.9475999995775","0.04261353259973538","1","undefined","1","right","0","46","46","46","46","47","46","NA","46","0","46","0","0","0","46","0","46","46","46","5","46","46","46","Tue Nov 30 14:28:33 2021","330","Loosely based on Logan (1984) Journal of Experimental Psychology: Human Perception and Performance","0","yes","StopSignalTask.osexp","C:\Users\user\Documents\GitHub\StopTaskBCN","no","mono","no","18","no","white","no","yes","768","psycho","46","46","C:/Users/user/Documents/GitHub/StopTaskBCN/subject-3.csv","psycho","Lentiform Loewenfeld","3.3.9","0","right","NA","down","right","NA","492.9952999991947","NA","86658.6540999997","492.9952999991947","NA","2","psycho","1024","2","48000","-16","experiment","","0","3","odd","right","8","90198.01899999948","150839.3105999985","199506.2025999996","199333.44699999905","NA","NA","NA","NA","NA","NA","199372.87159999867","90198.05009999982","3497.113999999783","NA","198456.23569999952","3538.5286000000633","198839.7746999999","200399.81829999853","198456.4548999988","169056.06629999966","198839.56409999882","198406.71979999932","Stop-Signal Task","44","30379.14460000131","47","yes","1024"
"1","10","131","255","93.75","93.75","646.308456250039","646.308456250039","black","no","psycho","psycho","psycho","0","uniform","15916","664.2821999994339","0.04173675546616197","1","undefined","1","right","0","47","47","47","47","48","47","NA","47","0","47","0","0","0","47","0","47","47","47","5","47","47","47","Tue Nov 30 14:28:33 2021","378","Loosely based on Logan (1984) Journal of Experimental Psychology: Human Perception and Performance","0","yes","StopSignalTask.osexp","C:\Users\user\Documents\GitHub\StopTaskBCN","no","mono","no","18","no","white","no","yes","768","psycho","47","47","C:/Users/user/Documents/GitHub/StopTaskBCN/subject-3.csv","psycho","Lentiform Loewenfeld","3.3.9","0","right","NA","down","right","NA","643.66130000056","NA","86658.6540999997","643.66130000056","NA","2","psycho","1024","2","48000","-16","experiment","","0","3","odd","right","8","90198.01899999948","150839.3105999985","201889.73110000006","201717.45889999875","NA","NA","NA","NA","NA","NA","201756.21829999908","90198.05009999982","3497.113999999783","NA","200639.58479999928","3538.5286000000633","201073.0984999991","202785.69269999934","200639.8079999999","169056.06629999966","201072.9042999992","200589.9348999992","Stop-Signal Task","45","31022.80590000187","48","yes","1024"
"1","10","133","255","93.87755102040816","93.87755102040816","651.2240632653577","651.2240632653577","black","no","psycho","psycho","psycho","0","uniform","21979","900.3047999995179","0.04096204558894936","1","undefined","1","left","0","48","48","48","48","49","48","NA","48","0","48","0","0","0","48","0","48","48","48","5","48","48","48","Tue Nov 30 14:28:33 2021","314","Loosely based on Logan (1984) Journal of Experimental Psychology: Human Perception and Performance","1","yes","StopSignalTask.osexp","C:\Users\user\Documents\GitHub\StopTaskBCN","no","mono","no","18","no","white","no","yes","768","psycho","48","48","C:/Users/user/Documents/GitHub/StopTaskBCN/subject-3.csv","psycho","Lentiform Loewenfeld","3.3.9","0","left","NA","down","left","NA","887.1732000006596","NA","86658.6540999997","887.1732000006596","NA","2","psycho","1024","2","48000","-16","experiment","","0","3","odd","left","2","90198.01899999948","150839.3105999985","204456.22569999978","204277.46809999918","NA","NA","NA","NA","NA","NA","204322.92830000006","90198.05009999982","3497.113999999783","NA","203023.35279999897","3538.5286000000633","203389.6131999991","205347.9985999984","203023.9236999987","169056.06629999966","203389.55929999973","202971.26599999866","Stop-Signal Task","46","31909.97910000253","49","yes","1024"
"1","10","133","255","94","94","652.5644140000787","652.5644140000787","black","no","psycho","psycho","psycho","0","uniform","17590","738.039399999252","0.041957896532078","1","undefined","1","left","0","49","49","49","49","50","49","NA","49","0","49","0","0","0","49","0","49","49","49","5","49","49","49","Tue Nov 30 14:28:33 2021","376","Loosely based on Logan (1984) Journal of Experimental Psychology: Human Perception and Performance","1","yes","StopSignalTask.osexp","C:\Users\user\Documents\GitHub\StopTaskBCN","no","mono","no","18","no","white","no","yes","768","psycho","49","49","C:/Users/user/Documents/GitHub/StopTaskBCN/subject-3.csv","psycho","Lentiform Loewenfeld","3.3.9","0","left","NA","down","left","NA","718.2416000014055","NA","86658.6540999997","718.2416000014055","NA","2","psycho","1024","2","48000","-16","experiment","","0","3","odd","left","2","90198.01899999948","150839.3105999985","206906.2488999989","206725.4202999993","NA","NA","NA","NA","NA","NA","206772.9404999991","90198.05009999982","3497.113999999783","NA","205572.9607999983","3538.5286000000633","206006.46499999857","207800.94299999837","205573.17939999848","169056.06629999966","206006.26009999905","205521.73909999873","Stop-Signal Task","47","32628.220700003934","50","yes","1024"
"1","10","131","255","94.11764705882354","94.11764705882354","657.0186843138214","657.0186843138214","black","no","psycho","psycho","psycho","0","uniform","21862","893.3087000004598","0.04086125240144817","1","undefined","1","right","0","50","50","50","50","51","50","NA","50","0","50","0","0","0","50","0","50","50","50","5","50","50","50","Tue Nov 30 14:28:33 2021","338","Loosely based on Logan (1984) Journal of Experimental Psychology: Human Perception and Performance","0","yes","StopSignalTask.osexp","C:\Users\user\Documents\GitHub\StopTaskBCN","no","mono","no","18","no","white","no","yes","768","psycho","50","50","C:/Users/user/Documents/GitHub/StopTaskBCN/subject-3.csv","psycho","Lentiform Loewenfeld","3.3.9","0","right","NA","down","right","NA","879.732200000959","NA","86658.6540999997","879.732200000959","NA","2","psycho","1024","2","48000","-16","experiment","","0","3","odd","right","8","90198.01899999948","150839.3105999985","209422.99459999957","209253.47469999906","NA","NA","NA","NA","NA","NA","209289.58349999995","90198.05009999982","3497.113999999783","NA","208006.28709999908","3538.5286000000633","208372.97959999886","210322.75759999902","208006.5066999996","169056.06629999966","208372.92259999958","207961.45069999876","Stop-Signal Task","48","33507.95290000489","51","yes","1024"
"1","10","133","255","94.23076923076923","94.23076923076923","660.2981730770441","660.2981730770441","black","no","psycho","psycho","psycho","0","uniform","20419","851.285599999741","0.041690856555156516","1","undefined","1","left","0","51","51","51","51","52","51","NA","51","0","51","0","0","0","51","0","51","51","51","5","51","51","51","Tue Nov 30 14:28:33 2021","306","Loosely based on Logan (1984) Journal of Experimental Psychology: Human Perception and Performance","1","yes","StopSignalTask.osexp","C:\Users\user\Documents\GitHub\StopTaskBCN","no","mono","no","18","no","white","no","yes","768","psycho","51","51","C:/Users/user/Documents/GitHub/StopTaskBCN/subject-3.csv","psycho","Lentiform Loewenfeld","3.3.9","0","left","NA","down","left","NA","827.5521000013978","NA","86658.6540999997","827.5521000013978","NA","2","psycho","1024","2","48000","-16","experiment","","0","3","odd","left","2","90198.01899999948","150839.3105999985","211872.95849999826","211701.4425999987","NA","NA","NA","NA","NA","NA","211739.62669999857","90198.05009999982","3497.113999999783","NA","210522.95859999867","3538.5286000000633","210873.15299999865","212775.816899999","210523.0242999987","169056.06629999966","210872.94099999964","210486.1650999992","Stop-Signal Task","49","34335.50500000629","52","yes","1024"
"1","10","141","255","94.33962264150944","94.33962264150944","685.2715037737222","685.2715037737222","black","no","psycho","psycho","psycho","0","uniform","46529","2000.008600000001","0.04298413032732277","1","undefined","1","None","0","52","52","52","52","53","52","NA","52","0","52","0","0","0","52","0","52","52","52","6","52","52","52","Tue Nov 30 14:28:33 2021","383","Loosely based on Logan (1984) Journal of Experimental Psychology: Human Perception and Performance","1","yes","StopSignalTask.osexp","C:\Users\user\Documents\GitHub\StopTaskBCN","no","mono","no","18","no","white","no","yes","768","psycho","52","52","C:/Users/user/Documents/GitHub/StopTaskBCN/subject-3.csv","psycho","Lentiform Loewenfeld","3.3.9","0","None","NA","down","None","NA","1983.8847000009846","NA","86658.6540999997","1983.8847000009846","NA","2","psycho","1024","2","48000","-16","experiment","100","8","3","odd","left","4","90198.01899999948","150839.3105999985","215572.97109999854","215424.13419999866","NA","NA","NA","NA","NA","NA","215439.63759999862","90198.05009999982","3497.113999999783","NA","212989.65509999834","3538.5286000000633","213439.75609999872","216462.92269999866","212989.8721999998","213556.29419999968","213439.68419999874","212942.40739999985","Stop-Signal Task","50","36319.389700007276","53","yes","1024"
"1","10","133","255","94.44444444444444","94.44444444444444","682.7338388890234","682.7338388890234","black","no","psycho","psycho","psycho","0","uniform","13632","568.2601999997278","0.04168575410796125","1","undefined","1","left","0","53","53","53","53","54","53","NA","53","0","53","0","0","0","53","0","53","53","53","6","53","53","53","Tue Nov 30 14:28:33 2021","314","Loosely based on Logan (1984) Journal of Experimental Psychology: Human Perception and Performance","1","yes","StopSignalTask.osexp","C:\Users\user\Documents\GitHub\StopTaskBCN","no","mono","no","18","no","white","no","yes","768","psycho","53","53","C:/Users/user/Documents/GitHub/StopTaskBCN/subject-3.csv","psycho","Lentiform Loewenfeld","3.3.9","0","left","NA","down","left","NA","548.2375999999931","NA","86658.6540999997","548.2375999999931","NA","2","psycho","1024","2","48000","-16","experiment","","0","3","odd","left","2","90198.01899999948","150839.3105999985","217772.9879999988","217605.44719999962","NA","NA","NA","NA","NA","NA","217639.6503999986","90198.05009999982","3497.113999999783","NA","216689.69419999848","3538.5286000000633","217056.49399999855","218680.48259999888","216689.76959999965","213556.29419999968","217056.29109999974","216647.82319999905","Stop-Signal Task","51","36867.62730000727","54","yes","1024"
"1","10","131","255","94.54545454545455","94.54545454545455","683.2807927274008","683.2807927274008","black","no","psycho","psycho","psycho","0","uniform","17560","735.2833000004466","0.04187262528476347","1","undefined","1","right","0","54","54","54","54","55","54","NA","54","0","54","0","0","0","54","0","54","54","54","6","54","54","54","Tue Nov 30 14:28:33 2021","354","Loosely based on Logan (1984) Journal of Experimental Psychology: Human Perception and Performance","0","yes","StopSignalTask.osexp","C:\Users\user\Documents\GitHub\StopTaskBCN","no","mono","no","18","no","white","no","yes","768","psycho","54","54","C:/Users/user/Documents/GitHub/StopTaskBCN/subject-3.csv","psycho","Lentiform Loewenfeld","3.3.9","0","right","NA","down","right","NA","712.816299999773","NA","86658.6540999997","712.816299999773","NA","2","psycho","1024","2","48000","-16","experiment","","0","3","odd","right","8","90198.01899999948","150839.3105999985","220222.9987999999","220053.43049999827","NA","NA","NA","NA","NA","NA","220089.65409999836","90198.05009999982","3497.113999999783","NA","218939.67439999868","3538.5286000000633","219339.8674","221121.1274999987","218939.88669999997","213556.29419999968","219339.64749999903","218894.64329999828","Stop-Signal Task","52","37580.44360000704","55","yes","1024"
"1","10","133","255","94.64285714285714","94.64285714285714","684.3816910715547","684.3816910715547","black","no","psycho","psycho","psycho","0","uniform","18472","758.2793000001111","0.041050200303167556","1","undefined","1","left","0","55","55","55","55","56","55","NA","55","0","55","0","0","0","55","0","55","55","55","6","55","55","55","Tue Nov 30 14:28:33 2021","369","Loosely based on Logan (1984) Journal of Experimental Psychology: Human Perception and Performance","1","yes","StopSignalTask.osexp","C:\Users\user\Documents\GitHub\StopTaskBCN","no","mono","no","18","no","white","no","yes","768","psycho","55","55","C:/Users/user/Documents/GitHub/StopTaskBCN/subject-3.csv","psycho","Lentiform Loewenfeld","3.3.9","0","left","NA","down","left","NA","744.9311000000162","NA","86658.6540999997","744.9311000000162","NA","2","psycho","1024","2","48000","-16","experiment","","0","3","odd","left","2","90198.01899999948","150839.3105999985","222656.3443999985","222485.40599999978","NA","NA","NA","NA","NA","NA","222522.99259999927","90198.05009999982","3497.113999999783","NA","221339.7460999986","3538.5286000000633","221739.73769999977","223563.40549999912","221339.96939999997","213556.29419999968","221739.68199999945","221286.6686999987","Stop-Signal Task","53","38325.37470000706","56","yes","1024"
"1","10","133","255","94.73684210526316","94.73684210526316","684.8708929825822","684.8708929825822","black","no","psycho","psycho","psycho","0","uniform","17605","728.1175000007497","0.041358562908307285","1","undefined","1","left","0","56","56","56","56","57","56","NA","56","0","56","0","0","0","56","0","56","56","56","6","56","56","56","Tue Nov 30 14:28:33 2021","325","Loosely based on Logan (1984) Journal of Experimental Psychology: Human Perception and Performance","1","yes","StopSignalTask.osexp","C:\Users\user\Documents\GitHub\StopTaskBCN","no","mono","no","18","no","white","no","yes","768","psycho","56","56","C:/Users/user/Documents/GitHub/StopTaskBCN/subject-3.csv","psycho","Lentiform Loewenfeld","3.3.9","0","left","NA","down","left","NA","712.2662000001292","NA","86658.6540999997","712.2662000001292","NA","2","psycho","1024","2","48000","-16","experiment","","0","3","odd","left","2","90198.01899999948","150839.3105999985","225039.6693999992","224869.4065999989","NA","NA","NA","NA","NA","NA","224906.3529999985","90198.05009999982","3497.113999999783","NA","223789.7241999999","3538.5286000000633","224156.41439999855","225946.8498999995","223789.79719999916","213556.29419999968","224156.35549999934","223748.94229999883","Stop-Signal Task","54","39037.64090000719","57","yes","1024"
"1","10","131","255","94.82758620689656","94.82758620689656","686.6959431035527","686.6959431035527","black","no","psycho","psycho","psycho","0","uniform","19624","812.2879999991565","0.04139258051361376","1","undefined","1","right","0","57","57","57","57","58","57","NA","57","0","57","0","0","0","57","0","57","57","57","6","57","57","57","Tue Nov 30 14:28:33 2021","362","Loosely based on Logan (1984) Journal of Experimental Psychology: Human Perception and Performance","0","yes","StopSignalTask.osexp","C:\Users\user\Documents\GitHub\StopTaskBCN","no","mono","no","18","no","white","no","yes","768","psycho","57","57","C:/Users/user/Documents/GitHub/StopTaskBCN/subject-3.csv","psycho","Lentiform Loewenfeld","3.3.9","0","right","NA","down","right","NA","790.723799998872","NA","86658.6540999997","790.723799998872","NA","2","psycho","1024","2","48000","-16","experiment","","0","3","odd","right","8","90198.01899999948","150839.3105999985","227556.34429999918","227381.37060000008","NA","NA","NA","NA","NA","NA","227423.1198999987","90198.05009999982","3497.113999999783","NA","226173.1112999987","3538.5286000000633","226589.90129999985","228449.9324999997","226173.39639999956","213556.29419999968","226589.7015999999","226128.52930000008","Stop-Signal Task","55","39828.36470000606","58","yes","1024"
"1","10","133","255","94.91525423728814","94.91525423728814","689.2059983051904","689.2059983051904","black","no","psycho","psycho","psycho","0","uniform","20791","853.339599998435","0.04104370160157929","1","undefined","1","left","0","58","58","58","58","59","58","NA","58","0","58","0","0","0","58","0","58","58","58","6","58","58","58","Tue Nov 30 14:28:33 2021","379","Loosely based on Logan (1984) Journal of Experimental Psychology: Human Perception and Performance","1","yes","StopSignalTask.osexp","C:\Users\user\Documents\GitHub\StopTaskBCN","no","mono","no","18","no","white","no","yes","768","psycho","58","58","C:/Users/user/Documents/GitHub/StopTaskBCN/subject-3.csv","psycho","Lentiform Loewenfeld","3.3.9","0","left","NA","down","left","NA","834.7892000001739","NA","86658.6540999997","834.7892000001739","NA","2","psycho","1024","2","48000","-16","experiment","","0","3","odd","left","2","90198.01899999948","150839.3105999985","230106.37589999897","229925.43829999887","NA","NA","NA","NA","NA","NA","229973.04789999907","90198.05009999982","3497.113999999783","NA","228656.41089999917","3538.5286000000633","229089.8961999992","230998.7695","228656.62759999943","213556.29419999968","229089.6918999988","228611.47249999887","Stop-Signal Task","56","40663.15390000623","59","yes","1024"
"1","10","131","255","95","95","690.7657866667529","690.7657866667529","black","no","psycho","psycho","psycho","0","uniform","19496","797.0960999991803","0.040885109766063826","1","undefined","1","right","0","59","59","59","59","60","59","NA","59","0","59","0","0","0","59","0","59","59","59","6","59","59","59","Tue Nov 30 14:28:33 2021","317","Loosely based on Logan (1984) Journal of Experimental Psychology: Human Perception and Performance","0","yes","StopSignalTask.osexp","C:\Users\user\Documents\GitHub\StopTaskBCN","no","mono","no","18","no","white","no","yes","768","psycho","59","59","C:/Users/user/Documents/GitHub/StopTaskBCN/subject-3.csv","psycho","Lentiform Loewenfeld","3.3.9","0","right","NA","down","right","NA","782.7932999989425","NA","86658.6540999997","782.7932999989425","NA","2","psycho","1024","2","48000","-16","experiment","","0","3","odd","right","8","90198.01899999948","150839.3105999985","232539.73359999873","232373.38299999828","NA","NA","NA","NA","NA","NA","232406.38859999855","90198.05009999982","3497.113999999783","NA","231223.07849999925","3538.5286000000633","231589.8123999996","233436.10709999848","231223.14839999855","213556.29419999968","231589.75009999995","231184.6829999995","Stop-Signal Task","57","41445.947200005176","60","yes","1024"
"1","10","133","255","95.08196721311475","95.08196721311475","690.6117590164649","690.6117590164649","black","no","psycho","psycho","psycho","0","uniform","16841","700.3614000004891","0.041586687251379914","1","undefined","1","left","0","60","60","60","60","61","60","NA","60","0","60","0","0","0","60","0","60","60","60","6","60","60","60","Tue Nov 30 14:28:33 2021","373","Loosely based on Logan (1984) Journal of Experimental Psychology: Human Perception and Performance","1","yes","StopSignalTask.osexp","C:\Users\user\Documents\GitHub\StopTaskBCN","no","mono","no","18","no","white","no","yes","768","psycho","60","60","C:/Users/user/Documents/GitHub/StopTaskBCN/subject-3.csv","psycho","Lentiform Loewenfeld","3.3.9","0","left","NA","down","left","NA","681.3700999991852","NA","86658.6540999997","681.3700999991852","NA","2","psycho","1024","2","48000","-16","experiment","","0","3","odd","left","2","90198.01899999948","150839.3105999985","234973.0757999987","234805.42139999854","NA","NA","NA","NA","NA","NA","234839.7909999985","90198.05009999982","3497.113999999783","NA","233689.77730000007","3538.5286000000633","234123.28229999912","235873.44869999832","233690.00469999993","213556.29419999968","234123.06799999898","233637.99609999842","Stop-Signal Task","58","42127.31730000436","61","yes","1024"
"1","10","133","255","95.16129032258064","95.16129032258064","692.2820032258938","692.2820032258938","black","no","psycho","psycho","psycho","0","uniform","19333","806.3744999999763","0.04170974499560214","1","undefined","1","left","0","61","61","61","61","62","61","NA","61","0","61","0","0","0","61","0","61","61","61","6","61","61","61","Tue Nov 30 14:28:33 2021","378","Loosely based on Logan (1984) Journal of Experimental Psychology: Human Perception and Performance","1","yes","StopSignalTask.osexp","C:\Users\user\Documents\GitHub\StopTaskBCN","no","mono","no","18","no","white","no","yes","768","psycho","61","61","C:/Users/user/Documents/GitHub/StopTaskBCN/subject-3.csv","psycho","Lentiform Loewenfeld","3.3.9","0","left","NA","down","left","NA","794.1669000010588","NA","86658.6540999997","794.1669000010588","NA","2","psycho","1024","2","48000","-16","experiment","","0","3","odd","left","2","90198.01899999948","150839.3105999985","237473.09799999857","237301.3986999995","NA","NA","NA","NA","NA","NA","237339.75329999885","90198.05009999982","3497.113999999783","NA","236089.79499999987","3538.5286000000633","236506.4573999989","238373.5115999989","236090.04349999852","213556.29419999968","236506.40019999992","236046.7280999983","Stop-Signal Task","59","42921.48420000542","62","yes","1024"
"1","10","133","255","95.23809523809524","95.23809523809524","693.8216476191278","693.8216476191278","black","no","psycho","psycho","psycho","0","uniform","19342","806.9356000014232","0.04171934649991847","1","undefined","1","left","0","62","62","62","62","63","62","NA","62","0","62","0","0","0","62","0","62","62","62","6","62","62","62","Tue Nov 30 14:28:33 2021","353","Loosely based on Logan (1984) Journal of Experimental Psychology: Human Perception and Performance","1","yes","StopSignalTask.osexp","C:\Users\user\Documents\GitHub\StopTaskBCN","no","mono","no","18","no","white","no","yes","768","psycho","62","62","C:/Users/user/Documents/GitHub/StopTaskBCN/subject-3.csv","psycho","Lentiform Loewenfeld","3.3.9","0","left","NA","down","left","NA","789.2795999996306","NA","86658.6540999997","789.2795999996306","NA","2","psycho","1024","2","48000","-16","experiment","","0","3","odd","left","2","90198.01899999948","150839.3105999985","239989.7639999999","239813.3771999983","NA","NA","NA","NA","NA","NA","239856.41099999886","90198.05009999982","3497.113999999783","NA","238623.11259999842","3538.5286000000633","239023.31279999999","240884.58509999875","238623.3360999995","213556.29419999968","239023.08730000004","238580.2592","Stop-Signal Task","60","43710.76380000505","63","yes","1024"
"1","10","131","255","95.3125","95.3125","697.7690062500956","697.7690062500956","black","no","psycho","psycho","psycho","0","uniform","23447","972.601699999359","0.041480858958474816","1","undefined","1","right","0","63","63","63","63","64","63","NA","63","0","63","0","0","0","63","0","63","63","63","6","63","63","63","Tue Nov 30 14:28:33 2021","338","Loosely based on Logan (1984) Journal of Experimental Psychology: Human Perception and Performance","0","yes","StopSignalTask.osexp","C:\Users\user\Documents\GitHub\StopTaskBCN","no","mono","no","18","no","white","no","yes","768","psycho","63","63","C:/Users/user/Documents/GitHub/StopTaskBCN/subject-3.csv","psycho","Lentiform Loewenfeld","3.3.9","0","right","NA","down","right","NA","946.4526000010665","NA","86658.6540999997","946.4526000010665","NA","2","psycho","1024","2","48000","-16","experiment","","0","3","odd","right","8","90198.01899999948","150839.3105999985","242606.46499999892","242437.37079999846","NA","NA","NA","NA","NA","NA","242473.09049999967","90198.05009999982","3497.113999999783","NA","241089.78299999944","3538.5286000000633","241490.13289999857","243517.20979999844","241090.00349999953","213556.29419999968","241489.82389999946","241047.61509999842","Stop-Signal Task","61","44657.21640000612","64","yes","1024"
"1","10","133","255","95.38461538461539","95.38461538461539","698.2475246154721","698.2475246154721","black","no","psycho","psycho","psycho","0","uniform","17919","741.438000000926","0.041377197388298786","1","undefined","1","left","0","64","64","64","64","65","64","NA","64","0","64","0","0","0","64","0","64","64","64","6","64","64","64","Tue Nov 30 14:28:33 2021","377","Loosely based on Logan (1984) Journal of Experimental Psychology: Human Perception and Performance","1","yes","StopSignalTask.osexp","C:\Users\user\Documents\GitHub\StopTaskBCN","no","mono","no","18","no","white","no","yes","768","psycho","64","64","C:/Users/user/Documents/GitHub/StopTaskBCN/subject-3.csv","psycho","Lentiform Loewenfeld","3.3.9","0","left","NA","down","left","NA","728.8726999995706","NA","86658.6540999997","728.8726999995706","NA","2","psycho","1024","2","48000","-16","experiment","","0","3","odd","left","2","90198.01899999948","150839.3105999985","245039.78729999834","244869.48089999898","NA","NA","NA","NA","NA","NA","244906.45819999918","90198.05009999982","3497.113999999783","NA","243723.13869999925","3538.5286000000633","244139.82459999897","245932.96789999842","243723.35739999835","213556.29419999968","244139.77129999874","243678.9338999988","Stop-Signal Task","62","45386.08910000569","65","yes","1024"
"1","10","131","255","95.45454545454545","95.45454545454545","700.1938439394814","700.1938439394814","black","no","psycho","psycho","psycho","0","uniform","20309","840.3780999997107","0.04137959032939636","1","undefined","1","right","0","65","65","65","65","66","65","NA","65","0","65","0","0","0","65","0","65","65","65","6","65","65","65","Tue Nov 30 14:28:33 2021","304","Loosely based on Logan (1984) Journal of Experimental Psychology: Human Perception and Performance","0","yes","StopSignalTask.osexp","C:\Users\user\Documents\GitHub\StopTaskBCN","no","mono","no","18","no","white","no","yes","768","psycho","65","65","C:/Users/user/Documents/GitHub/StopTaskBCN/subject-3.csv","psycho","Lentiform Loewenfeld","3.3.9","0","right","NA","down","right","NA","826.7046000000846","NA","86658.6540999997","826.7046000000846","NA","2","psycho","1024","2","48000","-16","experiment","","0","3","odd","right","8","90198.01899999948","150839.3105999985","247489.78769999847","247317.40299999912","NA","NA","NA","NA","NA","NA","247356.46769999948","90198.05009999982","3497.113999999783","NA","246139.82319999923","3538.5286000000633","246489.8730999994","248398.18119999836","246140.04249999925","213556.29419999968","246489.81359999924","246094.7612","Stop-Signal Task","63","46212.79370000577","66","yes","1024"
"1","10","141","255","95.5223880597015","95.5223880597015","719.1948000001017","719.1948000001017","black","no","psycho","psycho","psycho","0","uniform","45945","2000.0157000012987","0.04353064968987482","1","undefined","1","None","0","66","66","66","66","67","66","NA","66","0","66","0","0","0","66","0","66","66","66","7","66","66","66","Tue Nov 30 14:28:33 2021","342","Loosely based on Logan (1984) Journal of Experimental Psychology: Human Perception and Performance","1","yes","StopSignalTask.osexp","C:\Users\user\Documents\GitHub\StopTaskBCN","no","mono","no","18","no","white","no","yes","768","psycho","66","66","C:/Users/user/Documents/GitHub/StopTaskBCN/subject-3.csv","psycho","Lentiform Loewenfeld","3.3.9","0","None","NA","down","None","NA","1973.2579000010446","NA","86658.6540999997","1973.2579000010446","NA","2","psycho","1024","2","48000","-16","experiment","100","8","3","odd","left","4","90198.01899999948","150839.3105999985","251189.82549999963","251030.56519999882","NA","NA","NA","NA","NA","NA","251039.80579999916","90198.05009999982","3497.113999999783","NA","248623.16949999877","3538.5286000000633","249056.7364999988","252092.01459999895","248623.39279999834","249173.13189999913","249056.5201999998","248571.88209999911","Stop-Signal Task","64","48186.05160000682","67","yes","1024"
"1","10","131","255","95.58823529411765","95.58823529411765","714.958767647148","714.958767647148","black","no","psycho","psycho","psycho","0","uniform","10575","457.2900000002701","0.043242553191514904","1","undefined","1","right","0","67","67","67","67","68","67","NA","67","0","67","0","0","0","67","0","67","67","67","7","67","67","67","Tue Nov 30 14:28:33 2021","380","Loosely based on Logan (1984) Journal of Experimental Psychology: Human Perception and Performance","0","yes","StopSignalTask.osexp","C:\Users\user\Documents\GitHub\StopTaskBCN","no","mono","no","18","no","white","no","yes","768","psycho","67","67","C:/Users/user/Documents/GitHub/StopTaskBCN/subject-3.csv","psycho","Lentiform Loewenfeld","3.3.9","0","right","NA","down","right","NA","431.1445999992429","NA","86658.6540999997","431.1445999992429","NA","2","psycho","1024","2","48000","-16","experiment","","0","3","odd","right","8","90198.01899999948","150839.3105999985","253389.83679999912","253205.36109999922","NA","NA","NA","NA","NA","NA","253239.83959999896","90198.05009999982","3497.113999999783","NA","252339.8750999986","3538.5286000000633","252773.39389999906","254281.93459999966","252340.1464999988","249173.13189999913","252773.1864999987","252288.378199999","Stop-Signal Task","65","48617.19620000606","68","yes","1024"
"1","10","133","255","95.65217391304348","95.65217391304348","718.2100434783649","718.2100434783649","black","no","psycho","psycho","psycho","0","uniform","23334","954.2081999989168","0.04089346875798906","1","undefined","1","left","0","68","68","68","68","69","68","NA","68","0","68","0","0","0","68","0","68","68","68","7","68","68","68","Tue Nov 30 14:28:33 2021","332","Loosely based on Logan (1984) Journal of Experimental Psychology: Human Perception and Performance","1","yes","StopSignalTask.osexp","C:\Users\user\Documents\GitHub\StopTaskBCN","no","mono","no","18","no","white","no","yes","768","psycho","68","68","C:/Users/user/Documents/GitHub/StopTaskBCN/subject-3.csv","psycho","Lentiform Loewenfeld","3.3.9","0","left","NA","down","left","NA","939.2968000011169","NA","86658.6540999997","939.2968000011169","NA","2","psycho","1024","2","48000","-16","experiment","","0","3","odd","left","2","90198.01899999948","150839.3105999985","256006.55149999875","255813.36289999855","NA","NA","NA","NA","NA","NA","255856.54059999977","90198.05009999982","3497.113999999783","NA","254489.86569999944","3538.5286000000633","254873.23849999846","256906.74949999992","254490.0807999984","249173.13189999913","254873.179799999","254446.45369999853","Stop-Signal Task","66","49556.493000007176","69","yes","1024"
"1","10","133","255","95.71428571428571","95.71428571428571","724.6513628572608","724.6513628572608","black","no","psycho","psycho","psycho","0","uniform","29098","1193.1955000000307","0.04100610007560763","1","undefined","1","left","0","69","69","69","69","70","69","NA","69","0","69","0","0","0","69","0","69","69","69","7","69","69","69","Tue Nov 30 14:28:33 2021","369","Loosely based on Logan (1984) Journal of Experimental Psychology: Human Perception and Performance","1","yes","StopSignalTask.osexp","C:\Users\user\Documents\GitHub\StopTaskBCN","no","mono","no","18","no","white","no","yes","768","psycho","69","69","C:/Users/user/Documents/GitHub/StopTaskBCN/subject-3.csv","psycho","Lentiform Loewenfeld","3.3.9","0","left","NA","down","left","NA","1169.1024000010802","NA","86658.6540999997","1169.1024000010802","NA","2","psycho","1024","2","48000","-16","experiment","","0","3","odd","left","2","90198.01899999948","150839.3105999985","258873.17919999987","258693.37319999977","NA","NA","NA","NA","NA","NA","258739.84669999845","90198.05009999982","3497.113999999783","NA","257106.53129999992","3538.5286000000633","257523.40359999833","259767.23909999966","257106.5987999991","249173.13189999913","257523.19159999932","257069.36809999932","Stop-Signal Task","67","50725.59540000826","70","yes","1024"
"1","10","131","255","95.77464788732394","95.77464788732394","730.1797281691319","730.1797281691319","black","no","psycho","psycho","psycho","0","uniform","27503","1136.341700001154","0.04131700905359976","1","undefined","1","right","0","70","70","70","70","71","70","NA","70","0","70","0","0","0","70","0","70","70","70","7","70","70","70","Tue Nov 30 14:28:33 2021","349","Loosely based on Logan (1984) Journal of Experimental Psychology: Human Perception and Performance","0","yes","StopSignalTask.osexp","C:\Users\user\Documents\GitHub\StopTaskBCN","no","mono","no","18","no","white","no","yes","768","psycho","70","70","C:/Users/user/Documents/GitHub/StopTaskBCN/subject-3.csv","psycho","Lentiform Loewenfeld","3.3.9","0","right","NA","down","right","NA","1117.1653000001097","NA","86658.6540999997","1117.1653000001097","NA","2","psycho","1024","2","48000","-16","experiment","","0","3","odd","right","8","90198.01899999948","150839.3105999985","261739.8835999993","261541.37369999988","NA","NA","NA","NA","NA","NA","261589.91799999966","90198.05009999982","3497.113999999783","NA","260023.24309999857","3538.5286000000633","260423.40679999872","262641.9722999999","260023.48349999922","249173.13189999913","260423.20560000007","259975.3064999986","Stop-Signal Task","68","51842.760700008366","71","yes","1024"
"1","10","133","255","95.83333333333333","95.83333333333333","731.0815888890057","731.0815888890057","black","no","psycho","psycho","psycho","0","uniform","19705","820.4096999997855","0.0416345952803748","1","undefined","1","left","0","71","71","71","71","72","71","NA","71","0","71","0","0","0","71","0","71","71","71","7","71","71","71","Tue Nov 30 14:28:33 2021","367","Loosely based on Logan (1984) Journal of Experimental Psychology: Human Perception and Performance","1","yes","StopSignalTask.osexp","C:\Users\user\Documents\GitHub\StopTaskBCN","no","mono","no","18","no","white","no","yes","768","psycho","71","71","C:/Users/user/Documents/GitHub/StopTaskBCN/subject-3.csv","psycho","Lentiform Loewenfeld","3.3.9","0","left","NA","down","left","NA","795.1137000000454","NA","86658.6540999997","795.1137000000454","NA","2","psycho","1024","2","48000","-16","experiment","","0","3","odd","left","2","90198.01899999948","150839.3105999985","264239.8660999988","264069.37219999963","NA","NA","NA","NA","NA","NA","264106.5638","90198.05009999982","3497.113999999783","NA","262856.56999999995","3538.5286000000633","263273.4292999994","265141.89839999925","262856.78989999904","249173.13189999913","263273.22490000003","262805.0254999998","Stop-Signal Task","69","52637.87440000841","72","yes","1024"
"1","10","141","255","95.89041095890411","95.89041095890411","748.1729369864198","748.1729369864198","black","no","psycho","psycho","psycho","0","uniform","47696","2000.0018999999156","0.04193227733981708","1","undefined","1","None","0","72","72","72","72","73","72","NA","72","0","72","0","0","0","72","0","72","72","72","8","72","72","72","Tue Nov 30 14:28:33 2021","397","Loosely based on Logan (1984) Journal of Experimental Psychology: Human Perception and Performance","1","yes","StopSignalTask.osexp","C:\Users\user\Documents\GitHub\StopTaskBCN","no","mono","no","18","no","white","no","yes","768","psycho","72","72","C:/Users/user/Documents/GitHub/StopTaskBCN/subject-3.csv","psycho","Lentiform Loewenfeld","3.3.9","0","None","NA","down","None","NA","1978.7500000002328","NA","86658.6540999997","1978.7500000002328","NA","2","psycho","1024","2","48000","-16","experiment","50","8","3","odd","left","3","90198.01899999948","150839.3105999985","267989.87169999967","267852.78979999933","NA","NA","NA","NA","NA","NA","267856.52479999955","90198.05009999982","3497.113999999783","NA","265423.31179999927","3538.5286000000633","265873.4314999983","268889.71349999885","265423.61739999976","265939.85869999963","265873.2297999995","265374.11319999956","Stop-Signal Task","70","54616.624400008644","73","yes","1024"
"1","10","131","255","95.94594594594595","95.94594594594595","743.0436932433639","743.0436932433639","black","no","psycho","psycho","psycho","0","uniform","8968","380.1825000009849","0.04239323148985112","1","undefined","1","right","0","73","73","73","73","74","73","NA","73","0","73","0","0","0","73","0","73","73","73","8","73","73","73","Tue Nov 30 14:28:33 2021","361","Loosely based on Logan (1984) Journal of Experimental Psychology: Human Perception and Performance","0","yes","StopSignalTask.osexp","C:\Users\user\Documents\GitHub\StopTaskBCN","no","mono","no","18","no","white","no","yes","768","psycho","73","73","C:/Users/user/Documents/GitHub/StopTaskBCN/subject-3.csv","psycho","Lentiform Loewenfeld","3.3.9","0","right","NA","down","right","NA","368.60890000028303","NA","86658.6540999997","368.60890000028303","NA","2","psycho","1024","2","48000","-16","experiment","","0","3","odd","right","8","90198.01899999948","150839.3105999985","270073.2491999988","269909.4615999984","NA","NA","NA","NA","NA","NA","269939.9118999991","90198.05009999982","3497.113999999783","NA","269123.34179999924","3538.5286000000633","269540.0118999987","270972.6550999985","269123.71339999844","265939.85869999963","269539.933","269074.60079999873","Stop-Signal Task","71","54985.23330000893","74","yes","1024"
"1","10","131","255","96","96","739.3033480001023","739.3033480001023","black","no","psycho","psycho","psycho","0","uniform","11424","474.4119000006467","0.04152765231098098","1","undefined","1","right","0","74","74","74","74","75","74","NA","74","0","74","0","0","0","74","0","74","74","74","8","74","74","74","Tue Nov 30 14:28:33 2021","378","Loosely based on Logan (1984) Journal of Experimental Psychology: Human Perception and Performance","0","yes","StopSignalTask.osexp","C:\Users\user\Documents\GitHub\StopTaskBCN","no","mono","no","18","no","white","no","yes","768","psycho","74","74","C:/Users/user/Documents/GitHub/StopTaskBCN/subject-3.csv","psycho","Lentiform Loewenfeld","3.3.9","0","right","NA","down","right","NA","462.51779999875","NA","86658.6540999997","462.51779999875","NA","2","psycho","1024","2","48000","-16","experiment","","0","3","odd","right","8","90198.01899999948","150839.3105999985","272223.2406999992","272053.3413999983","NA","NA","NA","NA","NA","NA","272089.95909999975","90198.05009999982","3497.113999999783","NA","271173.2691999987","3538.5286000000633","271589.9960999995","273116.3951999988","271173.334699999","265939.85869999963","271589.94079999864","271143.25949999876","Stop-Signal Task","72","55447.75110000768","75","yes","1024"
