"FixdotCode","PulseDuration","ResponseCode","StopSignalCode","acc","accuracy","average_response_time","avg_rt","background","bidi","canvas_backend","clock_backend","color_backend","compensation","coordinates","coroutines_cycles","coroutines_duration","coroutines_mean_cycle_duration","correct","correct_instructions","correct_kb_response","correct_response","count_CodeSettings","count_ErrorFeedback","count_NoError","count_ResponseCalc","count_ResponseGiven","count_SetlinesZero","count_StartFixdot","count_StartStopsignal","count_StartTarget","count_about_this_example","count_blank","count_block_loop","count_experiment","count_finished","count_fixdot","count_instructions","count_kb_response","count_logger","count_new_advanced_delay","count_stop_signal","count_stop_signal_coroutines","count_target","count_trial_sequence","datetime","delay_new_advanced_delay","description","direction","disable_garbage_collection","experiment_file","experiment_path","font_bold","font_family","font_italic","font_size","font_underline","foreground","form_clicks","fullscreen","height","keyboard_backend","live_row","live_row_block_loop","logfile","mouse_backend","opensesame_codename","opensesame_version","repeat_cycle","response","response_finished","response_instructions","response_kb_response","response_target","response_time","response_time_finished","response_time_instructions","response_time_kb_response","response_time_target","round_decimals","sampler_backend","sound_buf_size","sound_channels","sound_freq","sound_sample_size","start","stop_after","stopcode","subject_nr","subject_parity","target","targetcode","time_CodeSettings","time_ErrorFeedback","time_NoError","time_ResponseCalc","time_ResponseGiven","time_SetlinesZero","time_StartFixdot","time_StartStopsignal","time_StartTarget","time_about_this_example","time_blank","time_block_loop","time_experiment","time_finished","time_fixdot","time_instructions","time_kb_response","time_logger","time_new_advanced_delay","time_stop_signal","time_target","time_trial_sequence","title","total_correct","total_response_time","total_responses","uniform_coordinates","width"
"1","10","133","255","100","100","381.9545999995171","381.9545999995171","black","no","psycho","psycho","psycho","0","uniform","9449","402.5545000004058","0.04260286802840574","1","undefined","1","left","0","0","0","0","0","1","0","NA","0","0","0","0","0","0","0","0","0","0","0","NA","0","0","0","Mon Nov 29 12:51:59 2021","314","Loosely based on Logan (1984) Journal of Experimental Psychology: Human Perception and Performance","1","yes","StopSignalTask.osexp","C:\Users\user\Documents\GitHub\StopTaskBCN","no","mono","no","18","no","white","no","yes","768","psycho","0","0","C:/Users/user/Documents/GitHub/StopTaskBCN/subject-1.csv","psycho","Lentiform Loewenfeld","3.3.9","0","left","NA","right","left","NA","381.9545999995171","NA","19721.017399999255","381.9545999995171","NA","2","psycho","1024","2","48000","-16","experiment","","0","1","odd","left","2","23275.250900000174","NA","24370.17470000137","24202.832500001023","NA","NA","NA","NA","NA","NA","24236.830400001054","23275.28429999984","3506.3695999997435","NA","23453.55980000022","3553.3418000013626","23820.40760000018","25273.23240000078","23453.810500001055","NA","23820.18960000096","23398.778500000844","Stop-Signal Task","1","381.9545999995171","1","yes","1024"
"1","10","133","255","100","100","379.627199999959","379.627199999959","black","no","psycho","psycho","psycho","0","uniform","9275","404.000200000155","0.04355797304583882","1","undefined","1","left","0","1","1","1","1","2","1","NA","1","0","1","0","0","0","1","0","1","1","1","NA","1","1","1","Mon Nov 29 12:51:59 2021","374","Loosely based on Logan (1984) Journal of Experimental Psychology: Human Perception and Performance","1","yes","StopSignalTask.osexp","C:\Users\user\Documents\GitHub\StopTaskBCN","no","mono","no","18","no","white","no","yes","768","psycho","1","1","C:/Users/user/Documents/GitHub/StopTaskBCN/subject-1.csv","psycho","Lentiform Loewenfeld","3.3.9","0","left","NA","right","left","NA","377.29980000040086","NA","19721.017399999255","377.29980000040086","NA","2","psycho","1024","2","48000","-16","experiment","","0","1","odd","left","2","23275.250900000174","NA","26486.829900000885","26314.83339999977","NA","NA","NA","NA","NA","NA","26353.59470000003","23275.28429999984","3506.3695999997435","NA","25503.795100001298","3553.3418000013626","25937.062900000456","27387.663900000916","25503.86720000097","NA","25936.850800000684","25463.194200001453","Stop-Signal Task","2","759.254399999918","2","yes","1024"
"1","10","133","255","100","100","367.29239999961766","367.29239999961766","black","no","psycho","psycho","psycho","0","uniform","8449","368.01919999925303","0.04355772280734442","1","undefined","1","left","0","2","2","2","2","3","2","NA","2","0","2","0","0","0","2","0","2","2","2","NA","2","2","2","Mon Nov 29 12:51:59 2021","327","Loosely based on Logan (1984) Journal of Experimental Psychology: Human Perception and Performance","1","yes","StopSignalTask.osexp","C:\Users\user\Documents\GitHub\StopTaskBCN","no","mono","no","18","no","white","no","yes","768","psycho","2","2","C:/Users/user/Documents/GitHub/StopTaskBCN/subject-1.csv","psycho","Lentiform Loewenfeld","3.3.9","0","left","NA","right","left","NA","342.6227999989351","NA","19721.017399999255","342.6227999989351","NA","2","psycho","1024","2","48000","-16","experiment","","0","1","odd","left","2","23275.250900000174","NA","28520.180299999993","28346.84019999986","NA","NA","NA","NA","NA","NA","28386.8693000004","23275.28429999984","3506.3695999997435","NA","27620.280000001003","3553.3418000013626","28003.747500000827","29418.82910000095","27620.619600000282","NA","28003.534400000717","27558.063000000402","Stop-Signal Task","3","1101.877199998853","3","yes","1024"
"1","10","131","255","100","100","376.6544000000067","376.6544000000067","black","no","psycho","psycho","psycho","0","uniform","9953","418.17819999960193","0.042015291871757454","1","undefined","1","right","0","3","3","3","3","4","3","NA","3","0","3","0","0","0","3","0","3","3","3","NA","3","3","3","Mon Nov 29 12:51:59 2021","366","Loosely based on Logan (1984) Journal of Experimental Psychology: Human Perception and Performance","0","yes","StopSignalTask.osexp","C:\Users\user\Documents\GitHub\StopTaskBCN","no","mono","no","18","no","white","no","yes","768","psycho","3","3","C:/Users/user/Documents/GitHub/StopTaskBCN/subject-1.csv","psycho","Lentiform Loewenfeld","3.3.9","0","right","NA","right","right","NA","404.74040000117384","NA","19721.017399999255","404.74040000117384","NA","2","psycho","1024","2","48000","-16","experiment","","0","1","odd","right","8","23275.250900000174","NA","30636.854700000185","30458.964000001288","NA","NA","NA","NA","NA","NA","30503.57129999975","23275.28429999984","3506.3695999997435","NA","29653.586800000994","3553.3418000013626","30053.572099999656","31528.070300000763","29653.66979999999","NA","30053.52060000041","29614.201100001083","Stop-Signal Task","4","1506.6176000000269","4","yes","1024"
"1","10","133","255","100","100","397.13513999995484","397.13513999995484","black","no","psycho","psycho","psycho","0","uniform","11603","502.18710000081046","0.043280798069534644","1","undefined","1","left","0","4","4","4","4","5","4","NA","4","0","4","0","0","0","4","0","4","4","4","NA","4","4","4","Mon Nov 29 12:51:59 2021","362","Loosely based on Logan (1984) Journal of Experimental Psychology: Human Perception and Performance","1","yes","StopSignalTask.osexp","C:\Users\user\Documents\GitHub\StopTaskBCN","no","mono","no","18","no","white","no","yes","768","psycho","4","4","C:/Users/user/Documents/GitHub/StopTaskBCN/subject-1.csv","psycho","Lentiform Loewenfeld","3.3.9","0","left","NA","right","left","NA","479.05809999974736","NA","19721.017399999255","479.05809999974736","NA","2","psycho","1024","2","48000","-16","experiment","","0","1","odd","left","2","23275.250900000174","NA","32836.88660000007","32666.79099999965","NA","NA","NA","NA","NA","NA","32703.672800000277","23275.28429999984","3506.3695999997435","NA","31753.56600000123","3553.3418000013626","32187.26980000065","33736.184700001104","31753.786900000705","NA","32186.953500000527","31709.956000000602","Stop-Signal Task","5","1985.6756999997742","5","yes","1024"
"1","10","133","255","100","100","385.39270000001125","385.39270000001125","black","no","psycho","psycho","psycho","0","uniform","8016","340.96950000093784","0.042536115269578074","1","undefined","1","left","0","5","5","5","5","6","5","NA","5","0","5","0","0","0","5","0","5","5","5","NA","5","5","5","Mon Nov 29 12:51:59 2021","399","Loosely based on Logan (1984) Journal of Experimental Psychology: Human Perception and Performance","1","yes","StopSignalTask.osexp","C:\Users\user\Documents\GitHub\StopTaskBCN","no","mono","no","18","no","white","no","yes","768","psycho","5","5","C:/Users/user/Documents/GitHub/StopTaskBCN/subject-1.csv","psycho","Lentiform Loewenfeld","3.3.9","0","left","NA","right","left","NA","326.68050000029325","NA","19721.017399999255","326.68050000029325","NA","2","psycho","1024","2","48000","-16","experiment","","0","1","odd","left","2","23275.250900000174","NA","34903.60680000049","34730.7794999997","NA","NA","NA","NA","NA","NA","34770.27090000047","23275.28429999984","3506.3695999997435","NA","33970.44730000016","3553.3418000013626","34403.60760000112","35798.5105000007","33970.93070000119","NA","34403.552600000694","33919.17970000031","Stop-Signal Task","6","2312.3562000000675","6","yes","1024"
"1","10","133","255","100","100","383.95775714265517","383.95775714265517","black","no","psycho","psycho","psycho","0","uniform","9251","388.99769999989076","0.04204925953949743","1","undefined","1","left","0","6","6","6","6","7","6","NA","6","0","6","0","0","0","6","0","6","6","6","NA","6","6","6","Mon Nov 29 12:51:59 2021","355","Loosely based on Logan (1984) Journal of Experimental Psychology: Human Perception and Performance","1","yes","StopSignalTask.osexp","C:\Users\user\Documents\GitHub\StopTaskBCN","no","mono","no","18","no","white","no","yes","768","psycho","6","6","C:/Users/user/Documents/GitHub/StopTaskBCN/subject-1.csv","psycho","Lentiform Loewenfeld","3.3.9","0","left","NA","right","left","NA","375.3480999985186","NA","19721.017399999255","375.3480999985186","NA","2","psycho","1024","2","48000","-16","experiment","","0","1","odd","left","2","23275.250900000174","NA","36953.73400000062","36762.778600001184","NA","NA","NA","NA","NA","NA","36803.587000000334","23275.28429999984","3506.3695999997435","NA","36003.5923000014","3553.3418000013626","36386.94990000113","37845.255300000645","36003.66010000107","NA","36386.896900001375","35967.79969999989","Stop-Signal Task","7","2687.704299998586","7","yes","1024"
"1","10","131","255","100","100","380.28062499984117","380.28062499984117","black","no","psycho","psycho","psycho","0","uniform","8693","376.03690000105416","0.043257437018411844","1","undefined","1","right","0","7","7","7","7","8","7","NA","7","0","7","0","0","0","7","0","7","7","7","NA","7","7","7","Mon Nov 29 12:51:59 2021","380","Loosely based on Logan (1984) Journal of Experimental Psychology: Human Perception and Performance","0","yes","StopSignalTask.osexp","C:\Users\user\Documents\GitHub\StopTaskBCN","no","mono","no","18","no","white","no","yes","768","psycho","7","7","C:/Users/user/Documents/GitHub/StopTaskBCN/subject-1.csv","psycho","Lentiform Loewenfeld","3.3.9","0","right","NA","right","right","NA","354.54070000014326","NA","19721.017399999255","354.54070000014326","NA","2","psycho","1024","2","48000","-16","experiment","","0","1","odd","right","8","23275.250900000174","NA","39037.01580000052","38858.83040000044","NA","NA","NA","NA","NA","NA","38903.65589999965","23275.28429999984","3506.3695999997435","NA","38070.277500000884","3553.3418000013626","38503.798600000664","39938.85010000122","38070.496500000445","NA","38503.58760000017","38026.63190000021","Stop-Signal Task","8","3042.2449999987293","8","yes","1024"
"1","10","131","255","100","100","377.41349999972346","377.41349999972346","black","no","psycho","psycho","psycho","0","uniform","8704","376.05919999987236","0.04320533088233828","1","undefined","1","right","0","8","8","8","8","9","8","NA","8","0","8","0","0","0","8","0","8","8","8","NA","8","8","8","Mon Nov 29 12:51:59 2021","308","Loosely based on Logan (1984) Journal of Experimental Psychology: Human Perception and Performance","0","yes","StopSignalTask.osexp","C:\Users\user\Documents\GitHub\StopTaskBCN","no","mono","no","18","no","white","no","yes","768","psycho","8","8","C:/Users/user/Documents/GitHub/StopTaskBCN/subject-1.csv","psycho","Lentiform Loewenfeld","3.3.9","0","right","NA","right","right","NA","354.47649999878195","NA","19721.017399999255","354.47649999878195","NA","2","psycho","1024","2","48000","-16","experiment","","0","1","odd","right","8","23275.250900000174","NA","41036.96370000034","40858.84000000078","NA","NA","NA","NA","NA","NA","40903.67110000079","23275.28429999984","3506.3695999997435","NA","40153.631099999984","3553.3418000013626","40503.80700000096","41943.7883999999","40153.85240000069","NA","40503.59740000022","40105.7079000002","Stop-Signal Task","9","3396.7214999975113","9","yes","1024"
"1","10","131","255","100","100","366.8534599995837","366.8534599995837","black","no","psycho","psycho","psycho","0","uniform","6676","291.7802000010852","0.043705841821612516","1","undefined","1","right","0","9","9","9","9","10","9","NA","9","0","9","0","0","0","9","0","9","9","9","NA","9","9","9","Mon Nov 29 12:51:59 2021","355","Loosely based on Logan (1984) Journal of Experimental Psychology: Human Perception and Performance","0","yes","StopSignalTask.osexp","C:\Users\user\Documents\GitHub\StopTaskBCN","no","mono","no","18","no","white","no","yes","768","psycho","9","9","C:/Users/user/Documents/GitHub/StopTaskBCN/subject-1.csv","psycho","Lentiform Loewenfeld","3.3.9","0","right","NA","right","right","NA","271.8130999983259","NA","19721.017399999255","271.8130999983259","NA","2","psycho","1024","2","48000","-16","experiment","","0","1","odd","right","8","23275.250900000174","NA","43020.338500000435","42842.83680000044","NA","NA","NA","NA","NA","NA","42886.95600000028","23275.28429999984","3506.3695999997435","NA","42170.34330000024","3553.3418000013626","42570.484200001374","43917.16070000075","42170.61230000036","NA","42570.27660000131","42123.323800000435","Stop-Signal Task","10","3668.534599995837","10","yes","1024"
"1","10","133","255","100","100","365.78394545408213","365.78394545408213","black","no","psycho","psycho","psycho","0","uniform","8766","381.05799999902956","0.043469997718346975","1","undefined","1","left","0","10","10","10","10","11","10","NA","10","0","10","0","0","0","10","0","10","10","10","NA","10","10","10","Mon Nov 29 12:51:59 2021","317","Loosely based on Logan (1984) Journal of Experimental Psychology: Human Perception and Performance","1","yes","StopSignalTask.osexp","C:\Users\user\Documents\GitHub\StopTaskBCN","no","mono","no","18","no","white","no","yes","768","psycho","10","10","C:/Users/user/Documents/GitHub/StopTaskBCN/subject-1.csv","psycho","Lentiform Loewenfeld","3.3.9","0","left","NA","right","left","NA","355.0887999990664","NA","19721.017399999255","355.0887999990664","NA","2","psycho","1024","2","48000","-16","experiment","","0","1","odd","left","2","23275.250900000174","NA","45020.350300001155","44842.85319999981","NA","NA","NA","NA","NA","NA","44886.978600001385","23275.28429999984","3506.3695999997435","NA","44120.32800000088","3553.3418000013626","44487.19300000084","45917.931600000884","44120.547100001204","NA","44486.98870000044","44078.08300000033","Stop-Signal Task","11","4023.6233999949036","11","yes","1024"
"1","10","133","255","100","100","366.018724999473","366.018724999473","black","no","psycho","psycho","psycho","0","uniform","9090","381.4536000008957","0.04196409240933946","1","undefined","1","left","0","11","11","11","11","12","11","NA","11","0","11","0","0","0","11","0","11","11","11","NA","11","11","11","Mon Nov 29 12:51:59 2021","358","Loosely based on Logan (1984) Journal of Experimental Psychology: Human Perception and Performance","1","yes","StopSignalTask.osexp","C:\Users\user\Documents\GitHub\StopTaskBCN","no","mono","no","18","no","white","no","yes","768","psycho","11","11","C:/Users/user/Documents/GitHub/StopTaskBCN/subject-1.csv","psycho","Lentiform Loewenfeld","3.3.9","0","left","NA","right","left","NA","368.60129999877245","NA","19721.017399999255","368.60129999877245","NA","2","psycho","1024","2","48000","-16","experiment","","0","1","odd","left","2","23275.250900000174","NA","47103.64699999991","46923.22820000118","NA","NA","NA","NA","NA","NA","46970.371800000066","23275.28429999984","3506.3695999997435","NA","46153.68200000012","3553.3418000013626","46553.69960000098","47997.40920000113","46153.9141000012","NA","46553.64180000106","46105.09860000093","Stop-Signal Task","12","4392.224699993676","12","yes","1024"
"1","10","133","255","100","100","364.9320769225317","364.9320769225317","black","no","psycho","psycho","psycho","0","uniform","8723","365.1888999993389","0.04186505789285096","1","undefined","1","left","0","12","12","12","12","13","12","NA","12","0","12","0","0","0","12","0","12","12","12","NA","12","12","12","Mon Nov 29 12:51:59 2021","311","Loosely based on Logan (1984) Journal of Experimental Psychology: Human Perception and Performance","1","yes","StopSignalTask.osexp","C:\Users\user\Documents\GitHub\StopTaskBCN","no","mono","no","18","no","white","no","yes","768","psycho","12","12","C:/Users/user/Documents/GitHub/StopTaskBCN/subject-1.csv","psycho","Lentiform Loewenfeld","3.3.9","0","left","NA","right","left","NA","351.89229999923555","NA","19721.017399999255","351.89229999923555","NA","2","psycho","1024","2","48000","-16","experiment","","0","1","odd","left","2","23275.250900000174","NA","49103.68130000097","48922.98280000068","NA","NA","NA","NA","NA","NA","48970.35500000129","23275.28429999984","3506.3695999997435","NA","48203.694600000745","3553.3418000013626","48570.36880000123","50001.58240000019","48203.91279999967","NA","48570.31470000038","48158.118500001365","Stop-Signal Task","13","4744.116999992912","13","yes","1024"
"1","10","131","255","100","100","361.60465714237944","361.60465714237944","black","no","psycho","psycho","psycho","0","uniform","7816","343.91450000111945","0.04400134339830085","1","undefined","1","right","0","13","13","13","13","14","13","NA","13","0","13","0","0","0","13","0","13","13","13","NA","13","13","13","Mon Nov 29 12:51:59 2021","321","Loosely based on Logan (1984) Journal of Experimental Psychology: Human Perception and Performance","0","yes","StopSignalTask.osexp","C:\Users\user\Documents\GitHub\StopTaskBCN","no","mono","no","18","no","white","no","yes","768","psycho","13","13","C:/Users/user/Documents/GitHub/StopTaskBCN/subject-1.csv","psycho","Lentiform Loewenfeld","3.3.9","0","right","NA","right","right","NA","318.34820000040054","NA","19721.017399999255","318.34820000040054","NA","2","psycho","1024","2","48000","-16","experiment","","0","1","odd","right","8","23275.250900000174","NA","51103.714599999876","50922.83990000033","NA","NA","NA","NA","NA","NA","50970.3640000007","23275.28429999984","3506.3695999997435","NA","50237.04130000078","3553.3418000013626","50603.90619999998","52001.60230000074","50237.27520000102","NA","50603.69730000093","50189.84180000007","Stop-Signal Task","14","5062.465199993312","14","yes","1024"
"1","10","133","255","100","100","356.6869533328524","356.6869533328524","black","no","psycho","psycho","psycho","0","uniform","7024","298.1175000004441","0.04244269646931152","1","undefined","1","left","0","14","14","14","14","15","14","NA","14","0","14","0","0","0","14","0","14","14","14","NA","14","14","14","Mon Nov 29 12:51:59 2021","313","Loosely based on Logan (1984) Journal of Experimental Psychology: Human Perception and Performance","1","yes","StopSignalTask.osexp","C:\Users\user\Documents\GitHub\StopTaskBCN","no","mono","no","18","no","white","no","yes","768","psycho","14","14","C:/Users/user/Documents/GitHub/StopTaskBCN/subject-1.csv","psycho","Lentiform Loewenfeld","3.3.9","0","left","NA","right","left","NA","287.83909999947355","NA","19721.017399999255","287.83909999947355","NA","2","psycho","1024","2","48000","-16","experiment","","0","1","odd","left","2","23275.250900000174","NA","53037.020499999926","52858.84940000142","NA","NA","NA","NA","NA","NA","52903.71490000143","23275.28429999984","3506.3695999997435","NA","52220.38840000096","3553.3418000013626","52570.40960000086","53929.32649999966","52220.61120000035","NA","52570.354000001316","52169.958000000406","Stop-Signal Task","15","5350.304299992786","15","yes","1024"
"1","10","131","255","100","100","348.5516249995726","348.5516249995726","black","no","psycho","psycho","psycho","0","uniform","5548","241.9741999983671","0.043614671953562924","1","undefined","1","right","0","15","15","15","15","16","15","NA","15","0","15","0","0","0","15","0","15","15","15","NA","15","15","15","Mon Nov 29 12:51:59 2021","325","Loosely based on Logan (1984) Journal of Experimental Psychology: Human Perception and Performance","0","yes","StopSignalTask.osexp","C:\Users\user\Documents\GitHub\StopTaskBCN","no","mono","no","18","no","white","no","yes","768","psycho","15","15","C:/Users/user/Documents/GitHub/StopTaskBCN/subject-1.csv","psycho","Lentiform Loewenfeld","3.3.9","0","right","NA","right","right","NA","226.52170000037586","NA","19721.017399999255","226.52170000037586","NA","2","psycho","1024","2","48000","-16","experiment","","0","1","odd","right","8","23275.250900000174","NA","54903.72240000033","54730.80029999983","NA","NA","NA","NA","NA","NA","54770.36910000061","23275.28429999984","3506.3695999997435","NA","54137.06660000025","3553.3418000013626","54503.75200000053","55804.18590000045","54137.287300000025","NA","54503.69850000061","54091.23619999991","Stop-Signal Task","16","5576.8259999931615","16","yes","1024"
"1","10","133","255","100","100","349.0958058819695","349.0958058819695","black","no","psycho","psycho","psycho","0","uniform","8822","368.1034000001091","0.04172561777375982","1","undefined","1","left","0","16","16","16","16","17","16","NA","16","0","16","0","0","0","16","0","16","16","16","NA","16","16","16","Mon Nov 29 12:51:59 2021","347","Loosely based on Logan (1984) Journal of Experimental Psychology: Human Perception and Performance","1","yes","StopSignalTask.osexp","C:\Users\user\Documents\GitHub\StopTaskBCN","no","mono","no","18","no","white","no","yes","768","psycho","16","16","C:/Users/user/Documents/GitHub/StopTaskBCN/subject-1.csv","psycho","Lentiform Loewenfeld","3.3.9","0","left","NA","right","left","NA","357.8027000003203","NA","19721.017399999255","357.8027000003203","NA","2","psycho","1024","2","48000","-16","experiment","","0","1","odd","left","2","23275.250900000174","NA","56953.75160000003","56778.80910000022","NA","NA","NA","NA","NA","NA","56820.44000000133","23275.28429999984","3506.3695999997435","NA","56037.078700001075","3553.3418000013626","56420.45580000013","57850.92319999967","56037.15920000104","NA","56420.40220000126","55996.1471000006","Stop-Signal Task","17","5934.628699993482","17","yes","1024"
"1","10","131","255","100","100","343.2859611107738","343.2859611107738","black","no","psycho","psycho","psycho","0","uniform","6038","257.1472999989055","0.04258815833039177","1","undefined","1","right","0","17","17","17","17","18","17","NA","17","0","17","0","0","0","17","0","17","17","17","NA","17","17","17","Mon Nov 29 12:51:59 2021","350","Loosely based on Logan (1984) Journal of Experimental Psychology: Human Perception and Performance","0","yes","StopSignalTask.osexp","C:\Users\user\Documents\GitHub\StopTaskBCN","no","mono","no","18","no","white","no","yes","768","psycho","17","17","C:/Users/user/Documents/GitHub/StopTaskBCN/subject-1.csv","psycho","Lentiform Loewenfeld","3.3.9","0","right","NA","right","right","NA","244.5186000004469","NA","19721.017399999255","244.5186000004469","NA","2","psycho","1024","2","48000","-16","experiment","","0","1","odd","right","8","23275.250900000174","NA","58870.416300000215","58698.83170000139","NA","NA","NA","NA","NA","NA","58737.08650000117","23275.28429999984","3506.3695999997435","NA","58070.45629999993","3553.3418000013626","58453.784299999825","59772.64050000122","58070.53629999973","NA","58453.727800000706","58030.373400000826","Stop-Signal Task","18","6179.147299993929","18","yes","1024"
"1","10","131","255","100","100","342.56626315762236","342.56626315762236","black","no","psycho","psycho","psycho","0","uniform","8108","350.09829999944486","0.043179366058145645","1","undefined","1","right","0","18","18","18","18","19","18","NA","18","0","18","0","0","0","18","0","18","18","18","NA","18","18","18","Mon Nov 29 12:51:59 2021","306","Loosely based on Logan (1984) Journal of Experimental Psychology: Human Perception and Performance","0","yes","StopSignalTask.osexp","C:\Users\user\Documents\GitHub\StopTaskBCN","no","mono","no","18","no","white","no","yes","768","psycho","18","18","C:/Users/user/Documents/GitHub/StopTaskBCN/subject-1.csv","psycho","Lentiform Loewenfeld","3.3.9","0","right","NA","right","right","NA","329.61170000089623","NA","19721.017399999255","329.61170000089623","NA","2","psycho","1024","2","48000","-16","experiment","","0","1","odd","right","8","23275.250900000174","NA","60820.43110000086","60650.77900000142","NA","NA","NA","NA","NA","NA","60687.093800001094","23275.28429999984","3506.3695999997435","NA","59970.43620000113","3553.3418000013626","60320.619899999656","61715.36940000078","59970.50190000118","NA","60320.4053999998","59933.66820000119","Stop-Signal Task","19","6508.758999994825","19","yes","1024"
"1","10","133","255","100","100","345.991304999734","345.991304999734","black","no","psycho","psycho","psycho","0","uniform","10126","424.1182999994635","0.04188409046014848","1","undefined","1","left","0","19","19","19","19","20","19","NA","19","0","19","0","0","0","19","0","19","19","19","NA","19","19","19","Mon Nov 29 12:51:59 2021","340","Loosely based on Logan (1984) Journal of Experimental Psychology: Human Perception and Performance","1","yes","StopSignalTask.osexp","C:\Users\user\Documents\GitHub\StopTaskBCN","no","mono","no","18","no","white","no","yes","768","psycho","19","19","C:/Users/user/Documents/GitHub/StopTaskBCN/subject-1.csv","psycho","Lentiform Loewenfeld","3.3.9","0","left","NA","right","left","NA","411.0670999998547","NA","19721.017399999255","411.0670999998547","NA","2","psycho","1024","2","48000","-16","experiment","","0","1","odd","left","2","23275.250900000174","NA","62870.43220000123","62698.80390000071","NA","NA","NA","NA","NA","NA","62737.139200000456","23275.28429999984","3506.3695999997435","NA","61920.45010000038","3553.3418000013626","62287.166800000705","63765.398300000015","61920.51739999988","NA","62287.105900000824","61881.238300000405","Stop-Signal Task","20","6919.82609999468","20","yes","1024"
"1","10","132","255","95.23809523809524","95.23809523809524","339.71623809503353","339.71623809503353","black","no","psycho","psycho","psycho","0","uniform","5186","231.11000000062631","0.04456421133833905","0","undefined","0","left","0","20","20","20","20","21","20","NA","20","0","20","0","0","0","20","0","20","20","20","NA","20","20","20","Mon Nov 29 12:51:59 2021","365","Loosely based on Logan (1984) Journal of Experimental Psychology: Human Perception and Performance","1","yes","StopSignalTask.osexp","C:\Users\user\Documents\GitHub\StopTaskBCN","no","mono","no","18","no","white","no","yes","768","psycho","20","20","C:/Users/user/Documents/GitHub/StopTaskBCN/subject-1.csv","psycho","Lentiform Loewenfeld","3.3.9","0","right","NA","right","right","NA","214.21490000102494","NA","19721.017399999255","214.21490000102494","NA","2","psycho","1024","2","48000","-16","experiment","","0","1","odd","left","2","23275.250900000174","64787.14659999969","62870.43220000123","64618.78559999968","NA","NA","NA","NA","NA","NA","64653.77009999975","23275.28429999984","3506.3695999997435","NA","63987.15369999991","3553.3418000013626","64404.00299999965","65690.47130000035","63987.22110000017","NA","64403.796800001146","63948.29120000031","Stop-Signal Task","20","7134.040999995705","21","yes","1024"
"1","10","131","255","95.45454545454545","95.45454545454545","337.7969681816301","337.7969681816301","black","no","psycho","psycho","psycho","0","uniform","7384","321.1133000004338","0.043487716684782476","1","undefined","1","right","0","21","21","21","21","22","21","NA","21","0","21","0","0","0","21","0","21","21","21","NA","21","21","21","Mon Nov 29 12:51:59 2021","348","Loosely based on Logan (1984) Journal of Experimental Psychology: Human Perception and Performance","0","yes","StopSignalTask.osexp","C:\Users\user\Documents\GitHub\StopTaskBCN","no","mono","no","18","no","white","no","yes","768","psycho","21","21","C:/Users/user/Documents/GitHub/StopTaskBCN/subject-1.csv","psycho","Lentiform Loewenfeld","3.3.9","0","right","NA","right","right","NA","297.49230000015814","NA","19721.017399999255","297.49230000015814","NA","2","psycho","1024","2","48000","-16","experiment","","0","1","odd","right","8","23275.250900000174","64787.14659999969","66770.4948999999","66602.78260000086","NA","NA","NA","NA","NA","NA","66637.13380000081","23275.28429999984","3506.3695999997435","NA","65903.81720000005","3553.3418000013626","66304.73080000047","67659.45400000055","65904.03760000117","NA","66304.50810000002","65859.14670000057","Stop-Signal Task","21","7431.533299995863","22","yes","1024"
"1","10","131","255","95.65217391304348","95.65217391304348","337.58291304326593","337.58291304326593","black","no","psycho","psycho","psycho","0","uniform","8220","352.1349000002374","0.04283879562046684","1","undefined","1","right","0","22","22","22","22","23","22","NA","22","0","22","0","0","0","22","0","22","22","22","NA","22","22","22","Mon Nov 29 12:51:59 2021","309","Loosely based on Logan (1984) Journal of Experimental Psychology: Human Perception and Performance","0","yes","StopSignalTask.osexp","C:\Users\user\Documents\GitHub\StopTaskBCN","no","mono","no","18","no","white","no","yes","768","psycho","22","22","C:/Users/user/Documents/GitHub/StopTaskBCN/subject-1.csv","psycho","Lentiform Loewenfeld","3.3.9","0","right","NA","right","right","NA","332.8736999992543","NA","19721.017399999255","332.8736999992543","NA","2","psycho","1024","2","48000","-16","experiment","","0","1","odd","right","8","23275.250900000174","64787.14659999969","68737.13520000092","68570.82570000057","NA","NA","NA","NA","NA","NA","68603.83230000116","23275.28429999984","3506.3695999997435","NA","67887.26630000019","3553.3418000013626","68237.3748000009","69628.04250000045","67887.55090000086","NA","68237.16340000101","67840.62390000145","Stop-Signal Task","22","7764.406999995117","23","yes","1024"
"1","10","133","255","95.83333333333333","95.83333333333333","338.66191666644835","338.66191666644835","black","no","psycho","psycho","psycho","0","uniform","8952","380.89399999989837","0.04254848078640509","1","undefined","1","left","0","23","23","23","23","24","23","NA","23","0","23","0","0","0","23","0","23","23","23","NA","23","23","23","Mon Nov 29 12:51:59 2021","374","Loosely based on Logan (1984) Journal of Experimental Psychology: Human Perception and Performance","1","yes","StopSignalTask.osexp","C:\Users\user\Documents\GitHub\StopTaskBCN","no","mono","no","18","no","white","no","yes","768","psycho","23","23","C:/Users/user/Documents/GitHub/StopTaskBCN/subject-1.csv","psycho","Lentiform Loewenfeld","3.3.9","0","left","NA","right","left","NA","363.47899999964284","NA","19721.017399999255","363.47899999964284","NA","2","psycho","1024","2","48000","-16","experiment","","0","1","odd","left","2","23275.250900000174","64787.14659999969","70803.8231999999","70634.77600000078","NA","NA","NA","NA","NA","NA","70670.49360000055","23275.28429999984","3506.3695999997435","NA","69837.40510000098","3553.3418000013626","70270.72020000014","71706.08569999968","69837.62890000071","NA","70270.50980000058","69788.90460000002","Stop-Signal Task","23","8127.88599999476","24","yes","1024"
"1","10","131","255","96","96","334.45647599983204","334.45647599983204","black","no","psycho","psycho","psycho","0","uniform","5761","253.0901999998605","0.043931643811814004","1","undefined","1","right","0","24","24","24","24","25","24","NA","24","0","24","0","0","0","24","0","24","24","24","NA","24","24","24","Mon Nov 29 12:51:59 2021","326","Loosely based on Logan (1984) Journal of Experimental Psychology: Human Perception and Performance","0","yes","StopSignalTask.osexp","C:\Users\user\Documents\GitHub\StopTaskBCN","no","mono","no","18","no","white","no","yes","768","psycho","24","24","C:/Users/user/Documents/GitHub/StopTaskBCN/subject-1.csv","psycho","Lentiform Loewenfeld","3.3.9","0","right","NA","right","right","NA","233.525900001041","NA","19721.017399999255","233.525900001041","NA","2","psycho","1024","2","48000","-16","experiment","","0","1","odd","right","8","23275.250900000174","64787.14659999969","72737.24159999983","72554.8030000009","NA","NA","NA","NA","NA","NA","72603.84870000053","23275.28429999984","3506.3695999997435","NA","71937.25600000107","3553.3418000013626","72320.70500000009","73642.90249999976","71937.53210000068","NA","72320.50940000045","71891.70710000144","Stop-Signal Task","24","8361.411899995801","25","yes","1024"
"1","10","131","255","96.15384615384616","96.15384615384616","334.93170384596084","334.93170384596084","black","no","psycho","psycho","psycho","0","uniform","8541","365.18059999980323","0.04275618780000038","1","undefined","1","right","0","25","25","25","25","26","25","NA","25","0","25","0","0","0","25","0","25","25","25","NA","25","25","25","Mon Nov 29 12:51:59 2021","361","Loosely based on Logan (1984) Journal of Experimental Psychology: Human Perception and Performance","0","yes","StopSignalTask.osexp","C:\Users\user\Documents\GitHub\StopTaskBCN","no","mono","no","18","no","white","no","yes","768","psycho","25","25","C:/Users/user/Documents/GitHub/StopTaskBCN/subject-1.csv","psycho","Lentiform Loewenfeld","3.3.9","0","right","NA","right","right","NA","346.81239999918034","NA","19721.017399999255","346.81239999918034","NA","2","psycho","1024","2","48000","-16","experiment","","0","1","odd","right","8","23275.250900000174","64787.14659999969","74803.86590000126","74634.8668999999","NA","NA","NA","NA","NA","NA","74670.60289999972","23275.28429999984","3506.3695999997435","NA","73870.59930000032","3553.3418000013626","74287.3864000012","75694.29570000102","73870.68309999995","NA","74287.17510000024","73828.35010000053","Stop-Signal Task","25","8708.224299994981","26","yes","1024"
"1","10","139","255","96.29629629629629","96.29629629629629","395.90411851828253","395.90411851828253","black","no","psycho","psycho","psycho","0","uniform","46583","2000.0029000002542","0.04293417985102407","1","undefined","1","None","0","26","26","26","26","27","26","NA","26","0","26","0","0","0","26","0","26","26","26","0","26","26","26","Mon Nov 29 12:51:59 2021","392","Loosely based on Logan (1984) Journal of Experimental Psychology: Human Perception and Performance","0","yes","StopSignalTask.osexp","C:\Users\user\Documents\GitHub\StopTaskBCN","no","mono","no","18","no","white","no","yes","768","psycho","26","26","C:/Users/user/Documents/GitHub/StopTaskBCN/subject-1.csv","psycho","Lentiform Loewenfeld","3.3.9","0","None","NA","right","None","NA","1981.1868999986473","NA","19721.017399999255","1981.1868999986473","NA","2","psycho","1024","2","48000","-16","experiment","50","8","1","odd","right","9","23275.250900000174","64787.14659999969","78503.89309999991","78352.30370000136","NA","NA","NA","NA","NA","NA","78370.56930000108","23275.28429999984","3506.3695999997435","NA","75920.55720000099","3553.3418000013626","76370.76020000131","79397.14030000141","75920.62690000057","76453.90790000056","76370.55130000044","75882.10030000118","Stop-Signal Task","26","10689.411199993629","27","yes","1024"
"1","10","133","255","96.42857142857143","96.42857142857143","391.6957642854868","391.6957642854868","black","no","psycho","psycho","psycho","0","uniform","6819","299.0195999991556","0.04385094588636979","1","undefined","1","left","0","27","27","27","27","28","27","NA","27","0","27","0","0","0","27","0","27","27","27","0","27","27","27","Mon Nov 29 12:51:59 2021","341","Loosely based on Logan (1984) Journal of Experimental Psychology: Human Perception and Performance","1","yes","StopSignalTask.osexp","C:\Users\user\Documents\GitHub\StopTaskBCN","no","mono","no","18","no","white","no","yes","768","psycho","27","27","C:/Users/user/Documents/GitHub/StopTaskBCN/subject-1.csv","psycho","Lentiform Loewenfeld","3.3.9","0","left","NA","right","left","NA","278.07020000000193","NA","19721.017399999255","278.07020000000193","NA","2","psycho","1024","2","48000","-16","experiment","","0","1","odd","left","2","23275.250900000174","64787.14659999969","80471.02520000044","80282.79070000099","NA","NA","NA","NA","NA","NA","80320.55650000075","23275.28429999984","3506.3695999997435","NA","79603.9139000004","3553.3418000013626","80004.10720000036","81366.8488000003","79604.1322000001","76453.90790000056","80003.9041","79559.66470000021","Stop-Signal Task","27","10967.48139999363","28","yes","1024"
"1","10","133","255","96.55172413793103","96.55172413793103","392.7215275859986","392.7215275859986","black","no","psycho","psycho","psycho","0","uniform","10263","444.46179999977176","0.0433072006235771","1","undefined","1","left","0","28","28","28","28","29","28","NA","28","0","28","0","0","0","28","0","28","28","28","0","28","28","28","Mon Nov 29 12:51:59 2021","393","Loosely based on Logan (1984) Journal of Experimental Psychology: Human Perception and Performance","1","yes","StopSignalTask.osexp","C:\Users\user\Documents\GitHub\StopTaskBCN","no","mono","no","18","no","white","no","yes","768","psycho","28","28","C:/Users/user/Documents/GitHub/StopTaskBCN/subject-1.csv","psycho","Lentiform Loewenfeld","3.3.9","0","left","NA","right","left","NA","421.44290000032925","NA","19721.017399999255","421.44290000032925","NA","2","psycho","1024","2","48000","-16","experiment","","0","1","odd","left","2","23275.250900000174","64787.14659999969","82620.59200000112","82443.07780000054","NA","NA","NA","NA","NA","NA","82487.27030000009","23275.28429999984","3506.3695999997435","NA","81570.59780000054","3553.3418000013626","82020.78989999973","83516.92730000104","81570.66810000106","76453.90790000056","82020.57090000017","81530.48060000037","Stop-Signal Task","28","11388.92429999396","29","yes","1024"
"1","10","131","255","96.66666666666667","96.66666666666667","388.2829099997859","388.2829099997859","black","no","psycho","psycho","psycho","0","uniform","6385","270.1702000013029","0.04231326546613984","1","undefined","1","right","0","29","29","29","29","30","29","NA","29","0","29","0","0","0","29","0","29","29","29","0","29","29","29","Mon Nov 29 12:51:59 2021","315","Loosely based on Logan (1984) Journal of Experimental Psychology: Human Perception and Performance","0","yes","StopSignalTask.osexp","C:\Users\user\Documents\GitHub\StopTaskBCN","no","mono","no","18","no","white","no","yes","768","psycho","29","29","C:/Users/user/Documents/GitHub/StopTaskBCN/subject-1.csv","psycho","Lentiform Loewenfeld","3.3.9","0","right","NA","right","right","NA","259.5629999996163","NA","19721.017399999255","259.5629999996163","NA","2","psycho","1024","2","48000","-16","experiment","","0","1","odd","right","8","23275.250900000174","64787.14659999969","84503.93500000064","84330.80690000133","NA","NA","NA","NA","NA","NA","84370.6058000007","23275.28429999984","3506.3695999997435","NA","83720.60899999997","3553.3418000013626","84070.63840000046","85391.8418000012","83720.67539999989","76453.90790000056","84070.58210000105","83682.23030000081","Stop-Signal Task","29","11648.487299993576","30","yes","1024"
"1","10","131","255","96.7741935483871","96.7741935483871","386.29717419333303","386.29717419333303","black","no","psycho","psycho","psycho","0","uniform","8070","348.2258999993064","0.043150669144895466","1","undefined","1","right","0","30","30","30","30","31","30","NA","30","0","30","0","0","0","30","0","30","30","30","0","30","30","30","Mon Nov 29 12:51:59 2021","316","Loosely based on Logan (1984) Journal of Experimental Psychology: Human Perception and Performance","0","yes","StopSignalTask.osexp","C:\Users\user\Documents\GitHub\StopTaskBCN","no","mono","no","18","no","white","no","yes","768","psycho","30","30","C:/Users/user/Documents/GitHub/StopTaskBCN/subject-1.csv","psycho","Lentiform Loewenfeld","3.3.9","0","right","NA","right","right","NA","326.72509999974864","NA","19721.017399999255","326.72509999974864","NA","2","psycho","1024","2","48000","-16","experiment","","0","1","odd","right","8","23275.250900000174","64787.14659999969","86487.32510000082","86314.8412999999","NA","NA","NA","NA","NA","NA","86353.94070000075","23275.28429999984","3506.3695999997435","NA","85620.64360000113","3553.3418000013626","85987.4835999999","87376.04900000042","85620.71650000144","76453.90790000056","85987.27090000102","85581.33090000047","Stop-Signal Task","30","11975.212399993325","31","yes","1024"
"1","10","133","255","96.875","96.875","384.9292562497908","384.9292562497908","black","no","psycho","psycho","psycho","0","uniform","8240","360.0180999983422","0.04369151699009007","1","undefined","1","left","0","31","31","31","31","32","31","NA","31","0","31","0","0","0","31","0","31","31","31","0","31","31","31","Mon Nov 29 12:51:59 2021","314","Loosely based on Logan (1984) Journal of Experimental Psychology: Human Perception and Performance","1","yes","StopSignalTask.osexp","C:\Users\user\Documents\GitHub\StopTaskBCN","no","mono","no","18","no","white","no","yes","768","psycho","31","31","C:/Users/user/Documents/GitHub/StopTaskBCN/subject-1.csv","psycho","Lentiform Loewenfeld","3.3.9","0","left","NA","right","left","NA","342.52379999998084","NA","19721.017399999255","342.52379999998084","NA","2","psycho","1024","2","48000","-16","experiment","","0","1","odd","left","2","23275.250900000174","64787.14659999969","88503.9856000003","88330.78569999998","NA","NA","NA","NA","NA","NA","88370.6457999997","23275.28429999984","3506.3695999997435","NA","87603.99839999991","3553.3418000013626","87987.60390000098","89392.3950999997","87604.22889999973","76453.90790000056","87987.31960000077","87556.59670000023","Stop-Signal Task","31","12317.736199993305","32","yes","1024"
"1","10","131","255","96.96969696969697","96.96969696969697","381.1625090907138","381.1625090907138","black","no","psycho","psycho","psycho","0","uniform","6419","286.1617999988084","0.04458043308908061","1","undefined","1","right","0","32","32","32","32","33","32","NA","32","0","32","0","0","0","32","0","32","32","32","0","32","32","32","Mon Nov 29 12:51:59 2021","382","Loosely based on Logan (1984) Journal of Experimental Psychology: Human Perception and Performance","0","yes","StopSignalTask.osexp","C:\Users\user\Documents\GitHub\StopTaskBCN","no","mono","no","18","no","white","no","yes","768","psycho","32","32","C:/Users/user/Documents/GitHub/StopTaskBCN/subject-1.csv","psycho","Lentiform Loewenfeld","3.3.9","0","right","NA","right","right","NA","260.6266000002506","NA","19721.017399999255","260.6266000002506","NA","2","psycho","1024","2","48000","-16","experiment","","0","1","odd","right","8","23275.250900000174","64787.14659999969","90470.65070000099","90298.76280000099","NA","NA","NA","NA","NA","NA","90337.31340000122","23275.28429999984","3506.3695999997435","NA","89603.9821000013","3553.3418000013626","90037.51320000083","91359.53690000133","89604.19870000078","76453.90790000056","90037.30990000076","89554.87390000053","Stop-Signal Task","32","12578.362799993556","33","yes","1024"
"1","10","133","255","97.05882352941177","97.05882352941177","380.08819411746066","380.08819411746066","black","no","psycho","psycho","psycho","0","uniform","8423","362.20659999889904","0.04300208951666853","1","undefined","1","left","0","33","33","33","33","34","33","NA","33","0","33","0","0","0","33","0","33","33","33","0","33","33","33","Mon Nov 29 12:51:59 2021","314","Loosely based on Logan (1984) Journal of Experimental Psychology: Human Perception and Performance","1","yes","StopSignalTask.osexp","C:\Users\user\Documents\GitHub\StopTaskBCN","no","mono","no","18","no","white","no","yes","768","psycho","33","33","C:/Users/user/Documents/GitHub/StopTaskBCN/subject-1.csv","psycho","Lentiform Loewenfeld","3.3.9","0","left","NA","right","left","NA","344.6358000001055","NA","19721.017399999255","344.6358000001055","NA","2","psycho","1024","2","48000","-16","experiment","","0","1","odd","left","2","23275.250900000174","64787.14659999969","92453.97370000137","92282.81030000107","NA","NA","NA","NA","NA","NA","92320.68290000097","23275.28429999984","3506.3695999997435","NA","91570.66750000013","3553.3418000013626","91937.5412999998","93344.88500000043","91570.88400000066","76453.90790000056","91937.33470000006","91528.55110000019","Stop-Signal Task","33","12922.998599993662","34","yes","1024"
"1","10","131","255","97.14285714285714","97.14285714285714","377.72211999981664","377.72211999981664","black","no","psycho","psycho","psycho","0","uniform","7171","314.2111000015575","0.043816915353724374","1","undefined","1","right","0","34","34","34","34","35","34","NA","34","0","34","0","0","0","34","0","34","34","34","0","34","34","34","Mon Nov 29 12:51:59 2021","320","Loosely based on Logan (1984) Journal of Experimental Psychology: Human Perception and Performance","0","yes","StopSignalTask.osexp","C:\Users\user\Documents\GitHub\StopTaskBCN","no","mono","no","18","no","white","no","yes","768","psycho","34","34","C:/Users/user/Documents/GitHub/StopTaskBCN/subject-1.csv","psycho","Lentiform Loewenfeld","3.3.9","0","right","NA","right","right","NA","297.2755999999208","NA","19721.017399999255","297.2755999999208","NA","2","psycho","1024","2","48000","-16","experiment","","0","1","odd","right","8","23275.250900000174","64787.14659999969","94387.32420000088","94218.7801","NA","NA","NA","NA","NA","NA","94253.99389999984","23275.28429999984","3506.3695999997435","NA","93554.10130000018","3553.3418000013626","93920.85550000047","95285.55030000098","93554.34080000123","76453.90790000056","93920.65209999964","93504.40170000002","Stop-Signal Task","34","13220.274199993582","35","yes","1024"
"1","10","133","255","97.22222222222223","97.22222222222223","377.3397638887117","377.3397638887117","black","no","psycho","psycho","psycho","0","uniform","8934","388.22739999886835","0.043455048130609845","1","undefined","1","left","0","35","35","35","35","36","35","NA","35","0","35","0","0","0","35","0","35","35","35","0","35","35","35","Mon Nov 29 12:51:59 2021","317","Loosely based on Logan (1984) Journal of Experimental Psychology: Human Perception and Performance","1","yes","StopSignalTask.osexp","C:\Users\user\Documents\GitHub\StopTaskBCN","no","mono","no","18","no","white","no","yes","768","psycho","35","35","C:/Users/user/Documents/GitHub/StopTaskBCN/subject-1.csv","psycho","Lentiform Loewenfeld","3.3.9","0","left","NA","right","left","NA","363.95730000003823","NA","19721.017399999255","363.95730000003823","NA","2","psycho","1024","2","48000","-16","experiment","","0","1","odd","left","2","23275.250900000174","64787.14659999969","96387.42970000021","96218.82420000111","NA","NA","NA","NA","NA","NA","96254.02899999972","23275.28429999984","3506.3695999997435","NA","95487.36280000048","3553.3418000013626","95854.22860000108","97286.52280000097","95487.4319999999","76453.90790000056","95854.01869999987","95447.43890000063","Stop-Signal Task","35","13584.23149999362","36","yes","1024"
"1","10","131","255","97.29729729729729","97.29729729729729","373.0482621620074","373.0482621620074","black","no","psycho","psycho","psycho","0","uniform","5385","243.19430000105058","0.04516142989805953","1","undefined","1","right","0","36","36","36","36","37","36","NA","36","0","36","0","0","0","36","0","36","36","36","0","36","36","36","Mon Nov 29 12:51:59 2021","349","Loosely based on Logan (1984) Journal of Experimental Psychology: Human Perception and Performance","0","yes","StopSignalTask.osexp","C:\Users\user\Documents\GitHub\StopTaskBCN","no","mono","no","18","no","white","no","yes","768","psycho","36","36","C:/Users/user/Documents/GitHub/StopTaskBCN/subject-1.csv","psycho","Lentiform Loewenfeld","3.3.9","0","right","NA","right","right","NA","218.5542000006535","NA","19721.017399999255","218.5542000006535","NA","2","psycho","1024","2","48000","-16","experiment","","0","1","odd","right","8","23275.250900000174","64787.14659999969","98287.36800000115","98106.77209999994","NA","NA","NA","NA","NA","NA","98154.02050000012","23275.28429999984","3506.3695999997435","NA","97487.37410000103","3553.3418000013626","97887.57590000023","99183.45430000045","97487.43880000075","76453.90790000056","97887.36600000084","97448.80999999987","Stop-Signal Task","36","13802.785699994274","37","yes","1024"
"1","10","131","255","97.36842105263158","97.36842105263158","371.5264447366855","371.5264447366855","black","no","psycho","psycho","psycho","0","uniform","7602","334.279400000014","0.04397255985267219","1","undefined","1","right","0","37","37","37","37","38","37","NA","37","0","37","0","0","0","37","0","37","37","37","0","37","37","37","Mon Nov 29 12:51:59 2021","395","Loosely based on Logan (1984) Journal of Experimental Psychology: Human Perception and Performance","0","yes","StopSignalTask.osexp","C:\Users\user\Documents\GitHub\StopTaskBCN","no","mono","no","18","no","white","no","yes","768","psycho","37","37","C:/Users/user/Documents/GitHub/StopTaskBCN/subject-1.csv","psycho","Lentiform Loewenfeld","3.3.9","0","right","NA","right","right","NA","315.219199999774","NA","19721.017399999255","315.219199999774","NA","2","psycho","1024","2","48000","-16","experiment","","0","1","odd","right","8","23275.250900000174","64787.14659999969","100354.05390000051","100186.82190000072","NA","NA","NA","NA","NA","NA","100220.69890000057","23275.28429999984","3506.3695999997435","NA","99420.7451000002","3553.3418000013626","99870.93520000053","101250.80350000098","99420.99770000095","76453.90790000056","99870.72760000046","99370.06540000039","Stop-Signal Task","37","14118.004899994048","38","yes","1024"
"1","10","131","255","97.43589743589743","97.43589743589743","371.316556410117","371.316556410117","black","no","psycho","psycho","psycho","0","uniform","8909","377.1987000000081","0.0423390616230787","1","undefined","1","right","0","38","38","38","38","39","38","NA","38","0","38","0","0","0","38","0","38","38","38","0","38","38","38","Mon Nov 29 12:51:59 2021","372","Loosely based on Logan (1984) Journal of Experimental Psychology: Human Perception and Performance","0","yes","StopSignalTask.osexp","C:\Users\user\Documents\GitHub\StopTaskBCN","no","mono","no","18","no","white","no","yes","768","psycho","38","38","C:/Users/user/Documents/GitHub/StopTaskBCN/subject-1.csv","psycho","Lentiform Loewenfeld","3.3.9","0","right","NA","right","right","NA","363.3408000005147","NA","19721.017399999255","363.3408000005147","NA","2","psycho","1024","2","48000","-16","experiment","","0","1","odd","right","8","23275.250900000174","64787.14659999969","102404.07200000118","102234.76180000034","NA","NA","NA","NA","NA","NA","102270.72670000052","23275.28429999984","3506.3695999997435","NA","101454.06940000066","3553.3418000013626","101870.76230000093","103299.28010000003","101454.13680000092","76453.90790000056","101870.70680000033","101417.6191000006","Stop-Signal Task","38","14481.345699994563","39","yes","1024"
"1","10","131","255","97.5","97.5","371.08316749986443","371.08316749986443","black","no","psycho","psycho","psycho","0","uniform","8956","376.1895000006916","0.042004187137192006","1","undefined","1","right","0","39","39","39","39","40","39","NA","39","0","39","0","0","0","39","0","39","39","39","0","39","39","39","Mon Nov 29 12:51:59 2021","371","Loosely based on Logan (1984) Journal of Experimental Psychology: Human Perception and Performance","0","yes","StopSignalTask.osexp","C:\Users\user\Documents\GitHub\StopTaskBCN","no","mono","no","18","no","white","no","yes","768","psycho","39","39","C:/Users/user/Documents/GitHub/StopTaskBCN/subject-1.csv","psycho","Lentiform Loewenfeld","3.3.9","0","right","NA","right","right","NA","361.9810000000143","NA","19721.017399999255","361.9810000000143","NA","2","psycho","1024","2","48000","-16","experiment","","0","1","odd","right","8","23275.250900000174","64787.14659999969","104437.41920000139","104266.75030000115","NA","NA","NA","NA","NA","NA","104304.1162999998","23275.28429999984","3506.3695999997435","NA","103504.08930000049","3553.3418000013626","103904.10479999991","105330.41980000053","103504.31310000022","76453.90790000056","103904.05170000122","103460.56820000013","Stop-Signal Task","39","14843.326699994577","40","yes","1024"
"1","10","140","255","95.1219512195122","95.1219512195122","371.16938536573576","371.16938536573576","black","no","psycho","psycho","psycho","0","uniform","6380","385.93159999982163","0.06049084639495637","0","undefined","0","None","0","40","40","40","40","41","40","NA","40","0","40","0","0","0","40","0","40","40","40","1","40","40","40","Mon Nov 29 12:51:59 2021","363","Loosely based on Logan (1984) Journal of Experimental Psychology: Human Perception and Performance","1","yes","StopSignalTask.osexp","C:\Users\user\Documents\GitHub\StopTaskBCN","no","mono","no","18","no","white","no","yes","768","psycho","40","40","C:/Users/user/Documents/GitHub/StopTaskBCN/subject-1.csv","psycho","Lentiform Loewenfeld","3.3.9","0","left","NA","right","left","NA","374.61810000058904","NA","19721.017399999255","374.61810000058904","NA","2","psycho","1024","2","48000","-16","experiment","100","8","1","odd","left","4","23275.250900000174","106554.171400001","104437.41920000139","106362.77739999969","NA","NA","NA","NA","NA","NA","106404.12810000089","23275.28429999984","3506.3695999997435","NA","105554.10510000002","3553.3418000013626","105987.49270000008","107455.28370000102","105554.17260000104","106104.0920000014","105987.42909999964","105512.88680000107","Stop-Signal Task","39","15217.944799995166","41","yes","1024"
"1","10","131","255","95.23809523809524","95.23809523809524","368.5007952379757","368.5007952379757","black","no","psycho","psycho","psycho","0","uniform","6337","284.2251000001852","0.04485168060599419","1","undefined","1","right","0","41","41","41","41","42","41","NA","41","0","41","0","0","0","41","0","41","41","41","1","41","41","41","Mon Nov 29 12:51:59 2021","337","Loosely based on Logan (1984) Journal of Experimental Psychology: Human Perception and Performance","0","yes","StopSignalTask.osexp","C:\Users\user\Documents\GitHub\StopTaskBCN","no","mono","no","18","no","white","no","yes","768","psycho","41","41","C:/Users/user/Documents/GitHub/StopTaskBCN/subject-1.csv","psycho","Lentiform Loewenfeld","3.3.9","0","right","NA","right","right","NA","259.0885999998136","NA","19721.017399999255","259.0885999998136","NA","2","psycho","1024","2","48000","-16","experiment","","0","1","odd","right","8","23275.250900000174","106554.171400001","108504.15820000126","108330.7760000007","NA","NA","NA","NA","NA","NA","108370.78660000043","23275.28429999984","3506.3695999997435","NA","107687.4966000014","3553.3418000013626","108070.98270000097","109402.06829999988","107687.58080000043","106104.0920000014","108070.77420000132","107645.54620000126","Stop-Signal Task","40","15477.03339999498","42","yes","1024"
"1","10","131","255","95.34883720930233","95.34883720930233","366.6852488370983","366.6852488370983","black","no","psycho","psycho","psycho","0","uniform","7051","317.2993000007409","0.0450006098426806","1","undefined","1","right","0","42","42","42","42","43","42","NA","42","0","42","0","0","0","42","0","42","42","42","1","42","42","42","Mon Nov 29 12:51:59 2021","397","Loosely based on Logan (1984) Journal of Experimental Psychology: Human Perception and Performance","0","yes","StopSignalTask.osexp","C:\Users\user\Documents\GitHub\StopTaskBCN","no","mono","no","18","no","white","no","yes","768","psycho","42","42","C:/Users/user/Documents/GitHub/StopTaskBCN/subject-1.csv","psycho","Lentiform Loewenfeld","3.3.9","0","right","NA","right","right","NA","290.4323000002478","NA","19721.017399999255","290.4323000002478","NA","2","psycho","1024","2","48000","-16","experiment","","0","1","odd","right","8","23275.250900000174","106554.171400001","110554.13640000006","110378.8194000008","NA","NA","NA","NA","NA","NA","110420.82230000051","23275.28429999984","3506.3695999997435","NA","109637.53830000132","3553.3418000013626","110087.66830000059","111457.95800000087","109637.84440000018","106104.0920000014","110087.45900000031","109592.13330000057","Stop-Signal Task","41","15767.465699995228","43","yes","1024"
"1","10","133","255","95.45454545454545","95.45454545454545","366.3436613635233","366.3436613635233","black","no","psycho","psycho","psycho","0","uniform","8562","381.6088999992644","0.044570065405193225","1","undefined","1","left","0","43","43","43","43","44","43","NA","43","0","43","0","0","0","43","0","43","43","43","1","43","43","43","Mon Nov 29 12:51:59 2021","385","Loosely based on Logan (1984) Journal of Experimental Psychology: Human Perception and Performance","1","yes","StopSignalTask.osexp","C:\Users\user\Documents\GitHub\StopTaskBCN","no","mono","no","18","no","white","no","yes","768","psycho","43","43","C:/Users/user/Documents/GitHub/StopTaskBCN/subject-1.csv","psycho","Lentiform Loewenfeld","3.3.9","0","left","NA","right","left","NA","351.65539999979956","NA","19721.017399999255","351.65539999979956","NA","2","psycho","1024","2","48000","-16","experiment","","0","1","odd","left","2","23275.250900000174","106554.171400001","112687.48750000123","112506.76470000144","NA","NA","NA","NA","NA","NA","112554.17860000125","23275.28429999984","3506.3695999997435","NA","111704.23260000098","3553.3418000013626","112154.41190000092","113584.18540000093","111704.5694999997","106104.0920000014","112154.15260000009","111662.0426999998","Stop-Signal Task","42","16119.121099995027","44","yes","1024"
"1","10","133","255","95.55555555555556","95.55555555555556","367.3358399998607","367.3358399998607","black","no","psycho","psycho","psycho","0","uniform","10023","438.0167999988771","0.043701167315063065","1","undefined","1","left","0","44","44","44","44","45","44","NA","44","0","44","0","0","0","44","0","44","44","44","1","44","44","44","Mon Nov 29 12:51:59 2021","397","Loosely based on Logan (1984) Journal of Experimental Psychology: Human Perception and Performance","1","yes","StopSignalTask.osexp","C:\Users\user\Documents\GitHub\StopTaskBCN","no","mono","no","18","no","white","no","yes","768","psycho","44","44","C:/Users/user/Documents/GitHub/StopTaskBCN/subject-1.csv","psycho","Lentiform Loewenfeld","3.3.9","0","left","NA","right","left","NA","410.99169999870355","NA","19721.017399999255","410.99169999870355","NA","2","psycho","1024","2","48000","-16","experiment","","0","1","odd","left","2","23275.250900000174","106554.171400001","114854.15579999972","114682.74310000015","NA","NA","NA","NA","NA","NA","114720.85150000021","23275.28429999984","3506.3695999997435","NA","113820.81900000048","3553.3418000013626","114271.07270000124","115744.85800000002","113821.0620000009","106104.0920000014","114270.84840000134","113774.03070000037","Stop-Signal Task","43","16530.11279999373","45","yes","1024"
"1","10","133","255","95.65217391304348","95.65217391304348","365.43348478248254","365.43348478248254","black","no","psycho","psycho","psycho","0","uniform","6887","295.22480000014184","0.04286696674896789","1","undefined","1","left","0","45","45","45","45","46","45","NA","45","0","45","0","0","0","45","0","45","45","45","1","45","45","45","Mon Nov 29 12:51:59 2021","320","Loosely based on Logan (1984) Journal of Experimental Psychology: Human Perception and Performance","1","yes","StopSignalTask.osexp","C:\Users\user\Documents\GitHub\StopTaskBCN","no","mono","no","18","no","white","no","yes","768","psycho","45","45","C:/Users/user/Documents/GitHub/StopTaskBCN/subject-1.csv","psycho","Lentiform Loewenfeld","3.3.9","0","left","NA","right","left","NA","279.8275000004651","NA","19721.017399999255","279.8275000004651","NA","2","psycho","1024","2","48000","-16","experiment","","0","1","odd","left","2","23275.250900000174","106554.171400001","116804.23040000096","116634.75190000099","NA","NA","NA","NA","NA","NA","116670.81250000047","23275.28429999984","3506.3695999997435","NA","115987.51480000101","3553.3418000013626","116354.23280000032","117701.89720000053","115987.73700000129","106104.0920000014","116354.17770000095","115931.86010000136","Stop-Signal Task","44","16809.940299994196","46","yes","1024"
"1","10","133","255","95.74468085106383","95.74468085106383","365.32695531902993","365.32695531902993","black","no","psycho","psycho","psycho","0","uniform","8741","375.0706999999238","0.042909358196993916","1","undefined","1","left","0","46","46","46","46","47","46","NA","46","0","46","0","0","0","46","0","46","46","46","1","46","46","46","Mon Nov 29 12:51:59 2021","357","Loosely based on Logan (1984) Journal of Experimental Psychology: Human Perception and Performance","1","yes","StopSignalTask.osexp","C:\Users\user\Documents\GitHub\StopTaskBCN","no","mono","no","18","no","white","no","yes","768","psycho","46","46","C:/Users/user/Documents/GitHub/StopTaskBCN/subject-1.csv","psycho","Lentiform Loewenfeld","3.3.9","0","left","NA","right","left","NA","360.4266000002099","NA","19721.017399999255","360.4266000002099","NA","2","psycho","1024","2","48000","-16","experiment","","0","1","odd","left","2","23275.250900000174","106554.171400001","118870.84250000044","118698.77810000071","NA","NA","NA","NA","NA","NA","118737.52539999987","23275.28429999984","3506.3695999997435","NA","117920.8636000003","3553.3418000013626","118337.63999999974","119765.06960000006","117921.0834000005","106104.0920000014","118337.5689000004","117870.88910000057","Stop-Signal Task","45","17170.366899994406","47","yes","1024"
"1","10","138","255","93.75","93.75","363.50351458323377","363.50351458323377","black","no","psycho","psycho","psycho","0","uniform","3974","290.87020000042685","0.07319330649230671","0","undefined","0","None","0","47","47","47","47","48","47","NA","47","0","47","0","0","0","47","0","47","47","47","2","47","47","47","Mon Nov 29 12:51:59 2021","373","Loosely based on Logan (1984) Journal of Experimental Psychology: Human Perception and Performance","0","yes","StopSignalTask.osexp","C:\Users\user\Documents\GitHub\StopTaskBCN","no","mono","no","18","no","white","no","yes","768","psycho","47","47","C:/Users/user/Documents/GitHub/StopTaskBCN/subject-1.csv","psycho","Lentiform Loewenfeld","3.3.9","0","right","NA","right","right","NA","277.801800000816","NA","19721.017399999255","277.801800000816","NA","2","psycho","1024","2","48000","-16","experiment","100","8","1","odd","right","10","23275.250900000174","120854.27590000108","118870.84250000044","120682.73790000057","NA","NA","NA","NA","NA","NA","120720.85739999966","23275.28429999984","3506.3695999997435","NA","119970.87269999975","3553.3418000013626","120404.22899999976","121749.31780000043","119971.22330000093","120520.86960000088","120404.17350000098","119928.68110000018","Stop-Signal Task","45","17448.16869999522","48","yes","1024"
"1","10","141","255","93.87755102040816","93.87755102040816","396.39814897949395","396.39814897949395","black","no","psycho","psycho","psycho","0","uniform","47031","2000.0118000007205","0.042525393889152274","1","undefined","1","None","0","48","48","48","48","49","48","NA","48","0","48","0","0","0","48","0","48","48","48","3","48","48","48","Mon Nov 29 12:51:59 2021","309","Loosely based on Logan (1984) Journal of Experimental Psychology: Human Perception and Performance","1","yes","StopSignalTask.osexp","C:\Users\user\Documents\GitHub\StopTaskBCN","no","mono","no","18","no","white","no","yes","768","psycho","48","48","C:/Users/user/Documents/GitHub/StopTaskBCN/subject-1.csv","psycho","Lentiform Loewenfeld","3.3.9","0","None","NA","right","None","NA","1975.3405999999814","NA","19721.017399999255","1975.3405999999814","NA","2","psycho","1024","2","48000","-16","experiment","50","8","1","odd","left","3","23275.250900000174","120854.27590000108","124487.5602000011","124330.26810000047","NA","NA","NA","NA","NA","NA","124354.21300000053","23275.28429999984","3506.3695999997435","NA","121987.55309999979","3553.3418000013626","122354.45660000005","125390.23980000093","121987.77530000007","122420.87060000085","122354.24109999985","121938.90600000123","Stop-Signal Task","46","19423.509299995203","49","yes","1024"
"1","10","131","255","94","94","394.993023999923","394.993023999923","black","no","psycho","psycho","psycho","0","uniform","7687","352.38810000009835","0.045842084037999005","1","undefined","1","right","0","49","49","49","49","50","49","NA","49","0","49","0","0","0","49","0","49","49","49","3","49","49","49","Mon Nov 29 12:51:59 2021","308","Loosely based on Logan (1984) Journal of Experimental Psychology: Human Perception and Performance","0","yes","StopSignalTask.osexp","C:\Users\user\Documents\GitHub\StopTaskBCN","no","mono","no","18","no","white","no","yes","768","psycho","49","49","C:/Users/user/Documents/GitHub/StopTaskBCN/subject-1.csv","psycho","Lentiform Loewenfeld","3.3.9","0","right","NA","right","right","NA","326.1419000009482","NA","19721.017399999255","326.1419000009482","NA","2","psycho","1024","2","48000","-16","experiment","","0","1","odd","right","8","23275.250900000174","120854.27590000108","126504.3198000003","126314.76570000086","NA","NA","NA","NA","NA","NA","126354.40350000135","23275.28429999984","3506.3695999997435","NA","125620.92490000032","3553.3418000013626","125987.90290000034","127412.18459999982","125621.14540000039","122420.87060000085","125987.63359999975","125570.95980000122","Stop-Signal Task","47","19749.65119999615","50","yes","1024"
"1","10","141","255","94.11764705882354","94.11764705882354","426.19267450972274","426.19267450972274","black","no","psycho","psycho","psycho","0","uniform","47203","2000.0256000002992","0.042370730673904185","1","undefined","1","None","0","50","50","50","50","51","50","NA","50","0","50","0","0","0","50","0","50","50","50","4","50","50","50","Mon Nov 29 12:51:59 2021","362","Loosely based on Logan (1984) Journal of Experimental Psychology: Human Perception and Performance","1","yes","StopSignalTask.osexp","C:\Users\user\Documents\GitHub\StopTaskBCN","no","mono","no","18","no","white","no","yes","768","psycho","50","50","C:/Users/user/Documents/GitHub/StopTaskBCN/subject-1.csv","psycho","Lentiform Loewenfeld","3.3.9","0","None","NA","right","None","NA","1986.1751999997068","NA","19721.017399999255","1986.1751999997068","NA","2","psycho","1024","2","48000","-16","experiment","50","8","1","odd","left","3","23275.250900000174","120854.27590000108","130170.9308999998","130024.27230000103","NA","NA","NA","NA","NA","NA","130037.59870000067","23275.28429999984","3506.3695999997435","NA","127620.93810000079","3553.3418000013626","128037.62090000055","131069.26159999966","127621.16210000022","128104.252000001","128037.56440000143","127576.94300000003","Stop-Signal Task","48","21735.826399995858","51","yes","1024"
"1","10","131","255","94.23076923076923","94.23076923076923","423.5783942306695","423.5783942306695","black","no","psycho","psycho","psycho","0","uniform","7123","303.3575000008568","0.042588445879665426","1","undefined","1","right","0","51","51","51","51","52","51","NA","51","0","51","0","0","0","51","0","51","51","51","4","51","51","51","Mon Nov 29 12:51:59 2021","347","Loosely based on Logan (1984) Journal of Experimental Psychology: Human Perception and Performance","0","yes","StopSignalTask.osexp","C:\Users\user\Documents\GitHub\StopTaskBCN","no","mono","no","18","no","white","no","yes","768","psycho","51","51","C:/Users/user/Documents/GitHub/StopTaskBCN/subject-1.csv","psycho","Lentiform Loewenfeld","3.3.9","0","right","NA","right","right","NA","290.250099998957","NA","19721.017399999255","290.250099998957","NA","2","psycho","1024","2","48000","-16","experiment","","0","1","odd","right","8","23275.250900000174","120854.27590000108","132170.96300000048","131978.94840000116","NA","NA","NA","NA","NA","NA","132020.92810000066","23275.28429999984","3506.3695999997435","NA","131304.30440000055","3553.3418000013626","131687.77220000082","133069.2687999999","131304.54100000134","128104.252000001","131687.69000000064","131257.2852000012","Stop-Signal Task","49","22026.076499994815","52","yes","1024"
"1","10","141","255","94.33962264150944","94.33962264150944","452.90535094332057","452.90535094332057","black","no","psycho","psycho","psycho","0","uniform","46484","2000.0127000003122","0.04302583039326031","1","undefined","1","None","0","52","52","52","52","53","52","NA","52","0","52","0","0","0","52","0","52","52","52","5","52","52","52","Mon Nov 29 12:51:59 2021","361","Loosely based on Logan (1984) Journal of Experimental Psychology: Human Perception and Performance","1","yes","StopSignalTask.osexp","C:\Users\user\Documents\GitHub\StopTaskBCN","no","mono","no","18","no","white","no","yes","768","psycho","52","52","C:/Users/user/Documents/GitHub/StopTaskBCN/subject-1.csv","psycho","Lentiform Loewenfeld","3.3.9","0","None","NA","right","None","NA","1977.9071000011754","NA","19721.017399999255","1977.9071000011754","NA","2","psycho","1024","2","48000","-16","experiment","50","8","1","odd","left","3","23275.250900000174","120854.27590000108","135804.28990000108","135666.2257000007","NA","NA","NA","NA","NA","NA","135670.93680000107","23275.28429999984","3506.3695999997435","NA","133270.96730000083","3553.3418000013626","133687.8359000002","136699.40190000125","133271.03630000056","133754.2940000003","133687.62740000058","133232.7808000009","Stop-Signal Task","50","24003.98359999599","53","yes","1024"
"1","10","133","255","94.44444444444444","94.44444444444444","451.3235777776906","451.3235777776906","black","no","psycho","psycho","psycho","0","uniform","9044","385.16209999943385","0.042587582927845404","1","undefined","1","left","0","53","53","53","53","54","53","NA","53","0","53","0","0","0","53","0","53","53","53","5","53","53","53","Mon Nov 29 12:51:59 2021","372","Loosely based on Logan (1984) Journal of Experimental Psychology: Human Perception and Performance","1","yes","StopSignalTask.osexp","C:\Users\user\Documents\GitHub\StopTaskBCN","no","mono","no","18","no","white","no","yes","768","psycho","53","53","C:/Users/user/Documents/GitHub/StopTaskBCN/subject-1.csv","psycho","Lentiform Loewenfeld","3.3.9","0","left","NA","right","left","NA","367.4895999993023","NA","19721.017399999255","367.4895999993023","NA","2","psycho","1024","2","48000","-16","experiment","","0","1","odd","left","2","23275.250900000174","120854.27590000108","137887.62099999987","137722.73880000104","NA","NA","NA","NA","NA","NA","137754.41750000027","23275.28429999984","3506.3695999997435","NA","136921.00370000117","3553.3418000013626","137354.50590000075","138781.03750000082","136921.1038000012","133754.2940000003","137354.30270000143","136879.6858000005","Stop-Signal Task","51","24371.473199995293","54","yes","1024"
"1","10","131","255","94.54545454545455","94.54545454545455","448.0166909090095","448.0166909090095","black","no","psycho","psycho","psycho","0","uniform","6530","287.29840000049444","0.043996692189968524","1","undefined","1","right","0","54","54","54","54","55","54","NA","54","0","54","0","0","0","54","0","54","54","54","5","54","54","54","Mon Nov 29 12:51:59 2021","360","Loosely based on Logan (1984) Journal of Experimental Psychology: Human Perception and Performance","0","yes","StopSignalTask.osexp","C:\Users\user\Documents\GitHub\StopTaskBCN","no","mono","no","18","no","white","no","yes","768","psycho","54","54","C:/Users/user/Documents/GitHub/StopTaskBCN/subject-1.csv","psycho","Lentiform Loewenfeld","3.3.9","0","right","NA","right","right","NA","269.4448000002303","NA","19721.017399999255","269.4448000002303","NA","2","psycho","1024","2","48000","-16","experiment","","0","1","odd","right","8","23275.250900000174","120854.27590000108","139854.4135000011","139674.73220000102","NA","NA","NA","NA","NA","NA","139721.00580000004","23275.28429999984","3506.3695999997435","NA","138987.66530000104","3553.3418000013626","139404.53650000016","140750.19280000014","138987.88950000016","133754.2940000003","139404.32429999963","138945.6379000003","Stop-Signal Task","52","24640.917999995523","55","yes","1024"
"1","10","131","255","94.64285714285714","94.64285714285714","446.30528392849584","446.30528392849584","black","no","psycho","psycho","psycho","0","uniform","8522","368.6821999999811","0.04326240319173681","1","undefined","1","right","0","55","55","55","55","56","55","NA","55","0","55","0","0","0","55","0","55","55","55","5","55","55","55","Mon Nov 29 12:51:59 2021","317","Loosely based on Logan (1984) Journal of Experimental Psychology: Human Perception and Performance","0","yes","StopSignalTask.osexp","C:\Users\user\Documents\GitHub\StopTaskBCN","no","mono","no","18","no","white","no","yes","768","psycho","55","55","C:/Users/user/Documents/GitHub/StopTaskBCN/subject-1.csv","psycho","Lentiform Loewenfeld","3.3.9","0","right","NA","right","right","NA","352.1779000002425","NA","19721.017399999255","352.1779000002425","NA","2","psycho","1024","2","48000","-16","experiment","","0","1","odd","right","8","23275.250900000174","120854.27590000108","141871.0237000014","141690.7133000004","NA","NA","NA","NA","NA","NA","141737.66249999971","23275.28429999984","3506.3695999997435","NA","140971.14140000122","3553.3418000013626","141337.79080000022","142774.7786","140971.51920000033","133754.2940000003","141337.72339999996","140921.72300000128","Stop-Signal Task","53","24993.095899995766","56","yes","1024"
"1","10","130","255","92.98245614035088","92.98245614035088","444.35935964905036","444.35935964905036","black","no","psycho","psycho","psycho","0","uniform","8223","360.18639999930747","0.04380231059215706","0","undefined","0","right","0","56","56","56","56","57","56","NA","56","0","56","0","0","0","56","0","56","56","56","5","56","56","56","Mon Nov 29 12:51:59 2021","301","Loosely based on Logan (1984) Journal of Experimental Psychology: Human Perception and Performance","0","yes","StopSignalTask.osexp","C:\Users\user\Documents\GitHub\StopTaskBCN","no","mono","no","18","no","white","no","yes","768","psycho","56","56","C:/Users/user/Documents/GitHub/StopTaskBCN/subject-1.csv","psycho","Lentiform Loewenfeld","3.3.9","0","left","NA","right","left","NA","335.3876000001037","NA","19721.017399999255","335.3876000001037","NA","2","psycho","1024","2","48000","-16","experiment","","0","1","odd","right","8","23275.250900000174","143887.76040000084","141871.0237000014","143690.74420000106","NA","NA","NA","NA","NA","NA","143737.68250000104","23275.28429999984","3506.3695999997435","NA","142987.71250000026","3553.3418000013626","143354.58310000104","144784.2943000014","142987.7833999999","133754.2940000003","143354.3662000011","142946.29820000046","Stop-Signal Task","53","25328.48349999587","57","yes","1024"
"1","10","131","255","93.10344827586206","93.10344827586206","441.6067051723326","441.6067051723326","black","no","psycho","psycho","psycho","0","uniform","6943","308.0950999992783","0.044374924384167985","1","undefined","1","right","0","57","57","57","57","58","57","NA","57","0","57","0","0","0","57","0","57","57","57","5","57","57","57","Mon Nov 29 12:51:59 2021","376","Loosely based on Logan (1984) Journal of Experimental Psychology: Human Perception and Performance","0","yes","StopSignalTask.osexp","C:\Users\user\Documents\GitHub\StopTaskBCN","no","mono","no","18","no","white","no","yes","768","psycho","57","57","C:/Users/user/Documents/GitHub/StopTaskBCN/subject-1.csv","psycho","Lentiform Loewenfeld","3.3.9","0","right","NA","right","right","NA","284.7053999994241","NA","19721.017399999255","284.7053999994241","NA","2","psycho","1024","2","48000","-16","experiment","","0","1","odd","right","8","23275.250900000174","143887.76040000084","145887.75160000112","145706.74359999975","NA","NA","NA","NA","NA","NA","145754.36170000103","23275.28429999984","3506.3695999997435","NA","144987.72300000017","3553.3418000013626","145421.2602000007","146793.65620000137","144987.94559999986","133754.2940000003","145421.04840000137","144944.75440000131","Stop-Signal Task","54","25613.188899995293","58","yes","1024"
"1","10","131","255","93.22033898305085","93.22033898305085","439.18478983042905","439.18478983042905","black","no","psycho","psycho","psycho","0","uniform","7342","322.3224000011978","0.04390117134312147","1","undefined","1","right","0","58","58","58","58","59","58","NA","58","0","58","0","0","0","58","0","58","58","58","5","58","58","58","Mon Nov 29 12:51:59 2021","384","Loosely based on Logan (1984) Journal of Experimental Psychology: Human Perception and Performance","0","yes","StopSignalTask.osexp","C:\Users\user\Documents\GitHub\StopTaskBCN","no","mono","no","18","no","white","no","yes","768","psycho","58","58","C:/Users/user/Documents/GitHub/StopTaskBCN/subject-1.csv","psycho","Lentiform Loewenfeld","3.3.9","0","right","NA","right","right","NA","298.7137000000221","NA","19721.017399999255","298.7137000000221","NA","2","psycho","1024","2","48000","-16","experiment","","0","1","odd","right","8","23275.250900000174","143887.76040000084","147937.7328999999","147770.74450000146","NA","NA","NA","NA","NA","NA","147804.41450000036","23275.28429999984","3506.3695999997435","NA","147037.75860000134","3553.3418000013626","147471.26890000072","148825.84680000035","147037.98920000007","133754.2940000003","147471.06590000112","146981.9507000011","Stop-Signal Task","55","25911.902599995316","59","yes","1024"
"1","10","131","255","93.33333333333333","93.33333333333333","437.3868216665869","437.3868216665869","black","no","psycho","psycho","psycho","0","uniform","8188","352.10180000102264","0.04300217391316837","1","undefined","1","right","0","59","59","59","59","60","59","NA","59","0","59","0","0","0","59","0","59","59","59","5","59","59","59","Mon Nov 29 12:51:59 2021","330","Loosely based on Logan (1984) Journal of Experimental Psychology: Human Perception and Performance","0","yes","StopSignalTask.osexp","C:\Users\user\Documents\GitHub\StopTaskBCN","no","mono","no","18","no","white","no","yes","768","psycho","59","59","C:/Users/user/Documents/GitHub/StopTaskBCN/subject-1.csv","psycho","Lentiform Loewenfeld","3.3.9","0","right","NA","right","right","NA","331.30669999989914","NA","19721.017399999255","331.30669999989914","NA","2","psycho","1024","2","48000","-16","experiment","","0","1","odd","right","8","23275.250900000174","143887.76040000084","149954.4240000014","149786.72510000068","NA","NA","NA","NA","NA","NA","149821.09560000026","23275.28429999984","3506.3695999997435","NA","149071.31079999998","3553.3418000013626","149454.63040000142","150862.1393000012","149071.96010000008","133754.2940000003","149454.41580000077","149021.6403000013","Stop-Signal Task","56","26243.209299995215","60","yes","1024"
"1","10","133","255","93.44262295081967","93.44262295081967","436.66496393434153","436.66496393434153","black","no","psycho","psycho","psycho","0","uniform","9681","414.486600000615","0.042814440657020454","1","undefined","1","left","0","60","60","60","60","61","60","NA","60","0","60","0","0","0","60","0","60","60","60","5","60","60","60","Mon Nov 29 12:51:59 2021","371","Loosely based on Logan (1984) Journal of Experimental Psychology: Human Perception and Performance","1","yes","StopSignalTask.osexp","C:\Users\user\Documents\GitHub\StopTaskBCN","no","mono","no","18","no","white","no","yes","768","psycho","60","60","C:/Users/user/Documents/GitHub/StopTaskBCN/subject-1.csv","psycho","Lentiform Loewenfeld","3.3.9","0","left","NA","right","left","NA","393.3534999996191","NA","19721.017399999255","393.3534999996191","NA","2","psycho","1024","2","48000","-16","experiment","","0","1","odd","left","2","23275.250900000174","143887.76040000084","152071.07180000094","151898.89570000014","NA","NA","NA","NA","NA","NA","151937.7822000006","23275.28429999984","3506.3695999997435","NA","151087.7861000008","3553.3418000013626","151504.63850000052","152971.8216000001","151087.86220000003","133754.2940000003","151504.42509999993","151048.5537000004","Stop-Signal Task","57","26636.562799994834","61","yes","1024"
"1","10","133","255","93.54838709677419","93.54838709677419","435.6212612902384","435.6212612902384","black","no","psycho","psycho","psycho","0","uniform","9141","395.3290000008419","0.043247894103581874","1","undefined","1","left","0","61","61","61","61","62","61","NA","61","0","61","0","0","0","61","0","61","61","61","5","61","61","61","Mon Nov 29 12:51:59 2021","382","Loosely based on Logan (1984) Journal of Experimental Psychology: Human Perception and Performance","1","yes","StopSignalTask.osexp","C:\Users\user\Documents\GitHub\StopTaskBCN","no","mono","no","18","no","white","no","yes","768","psycho","61","61","C:/Users/user/Documents/GitHub/StopTaskBCN/subject-1.csv","psycho","Lentiform Loewenfeld","3.3.9","0","left","NA","right","left","NA","371.955399999948","NA","19721.017399999255","371.955399999948","NA","2","psycho","1024","2","48000","-16","experiment","","0","1","odd","left","2","23275.250900000174","143887.76040000084","154187.75650000136","154010.72209999984","NA","NA","NA","NA","NA","NA","154054.47810000076","23275.28429999984","3506.3695999997435","NA","153204.46059999993","3553.3418000013626","153637.97580000028","155086.80210000055","153204.69810000033","133754.2940000003","153637.77210000082","153156.32929999992","Stop-Signal Task","58","27008.51819999478","62","yes","1024"
"1","10","133","255","93.65079365079364","93.65079365079364","435.10741904754576","435.10741904754576","black","no","psycho","psycho","psycho","0","uniform","9930","427.34829999972135","0.04303608257801826","1","undefined","1","left","0","62","62","62","62","63","62","NA","62","0","62","0","0","0","62","0","62","62","62","5","62","62","62","Mon Nov 29 12:51:59 2021","307","Loosely based on Logan (1984) Journal of Experimental Psychology: Human Perception and Performance","1","yes","StopSignalTask.osexp","C:\Users\user\Documents\GitHub\StopTaskBCN","no","mono","no","18","no","white","no","yes","768","psycho","62","62","C:/Users/user/Documents/GitHub/StopTaskBCN/subject-1.csv","psycho","Lentiform Loewenfeld","3.3.9","0","left","NA","right","left","NA","403.2492000006023","NA","19721.017399999255","403.2492000006023","NA","2","psycho","1024","2","48000","-16","experiment","","0","1","odd","left","2","23275.250900000174","143887.76040000084","156237.95810000045","156058.72480000107","NA","NA","NA","NA","NA","NA","156104.4511","23275.28429999984","3506.3695999997435","NA","155304.51840000023","3553.3418000013626","155654.6760000001","157134.07980000012","155304.74030000006","133754.2940000003","155654.47010000027","155252.42400000023","Stop-Signal Task","59","27411.767399995384","63","yes","1024"
"1","10","133","255","93.75","93.75","433.06078124993564","433.06078124993564","black","no","psycho","psycho","psycho","0","uniform","7314","319.37939999988885","0.04366685808037857","1","undefined","1","left","0","63","63","63","63","64","63","NA","63","0","63","0","0","0","63","0","63","63","63","5","63","63","63","Mon Nov 29 12:51:59 2021","353","Loosely based on Logan (1984) Journal of Experimental Psychology: Human Perception and Performance","1","yes","StopSignalTask.osexp","C:\Users\user\Documents\GitHub\StopTaskBCN","no","mono","no","18","no","white","no","yes","768","psycho","63","63","C:/Users/user/Documents/GitHub/StopTaskBCN/subject-1.csv","psycho","Lentiform Loewenfeld","3.3.9","0","left","NA","right","left","NA","304.1226000004972","NA","19721.017399999255","304.1226000004972","NA","2","psycho","1024","2","48000","-16","experiment","","0","1","odd","left","2","23275.250900000174","143887.76040000084","158221.1765000011","158042.75849999976","NA","NA","NA","NA","NA","NA","158087.80690000096","23275.28429999984","3506.3695999997435","NA","157354.47089999978","3553.3418000013626","157737.84410000007","159118.30270000064","157354.68899999978","133754.2940000003","157737.78599999967","157305.94470000142","Stop-Signal Task","60","27715.88999999588","64","yes","1024"
"1","10","131","255","93.84615384615384","93.84615384615384","431.0757384614804","431.0757384614804","black","no","psycho","psycho","psycho","0","uniform","7517","318.37129999985336","0.04235350538776817","1","undefined","1","right","0","64","64","64","64","65","64","NA","64","0","64","0","0","0","64","0","64","64","64","5","64","64","64","Mon Nov 29 12:51:59 2021","343","Loosely based on Logan (1984) Journal of Experimental Psychology: Human Perception and Performance","0","yes","StopSignalTask.osexp","C:\Users\user\Documents\GitHub\StopTaskBCN","no","mono","no","18","no","white","no","yes","768","psycho","64","64","C:/Users/user/Documents/GitHub/StopTaskBCN/subject-1.csv","psycho","Lentiform Loewenfeld","3.3.9","0","right","NA","right","right","NA","304.03300000034506","NA","19721.017399999255","304.03300000034506","NA","2","psycho","1024","2","48000","-16","experiment","","0","1","odd","right","8","23275.250900000174","143887.76040000084","160221.1881000003","160042.74249999982","NA","NA","NA","NA","NA","NA","160087.81520000048","23275.28429999984","3506.3695999997435","NA","159354.60120000062","3553.3418000013626","159737.86450000078","161118.16530000034","159354.9812000001","133754.2940000003","159737.80609999993","159303.6759000006","Stop-Signal Task","61","28019.922999996226","65","yes","1024"
"1","10","131","255","93.93939393939394","93.93939393939394","428.92885454539623","428.92885454539623","black","no","psycho","psycho","psycho","0","uniform","7119","301.3305000003893","0.04232764433212379","1","undefined","1","right","0","65","65","65","65","66","65","NA","65","0","65","0","0","0","65","0","65","65","65","5","65","65","65","Mon Nov 29 12:51:59 2021","353","Loosely based on Logan (1984) Journal of Experimental Psychology: Human Perception and Performance","0","yes","StopSignalTask.osexp","C:\Users\user\Documents\GitHub\StopTaskBCN","no","mono","no","18","no","white","no","yes","768","psycho","65","65","C:/Users/user/Documents/GitHub/StopTaskBCN/subject-1.csv","psycho","Lentiform Loewenfeld","3.3.9","0","right","NA","right","right","NA","289.38139999992563","NA","19721.017399999255","289.38139999992563","NA","2","psycho","1024","2","48000","-16","experiment","","0","1","odd","right","8","23275.250900000174","143887.76040000084","162171.33310000098","161994.71730000005","NA","NA","NA","NA","NA","NA","162037.82610000053","23275.28429999984","3506.3695999997435","NA","161321.17220000146","3553.3418000013626","161704.53500000076","163071.58049999998","161321.3899000002","133754.2940000003","161704.479","161278.59900000112","Stop-Signal Task","62","28309.304399996152","66","yes","1024"
"1","10","133","255","94.02985074626865","94.02985074626865","428.05728656710636","428.05728656710636","black","no","psycho","psycho","psycho","0","uniform","9173","390.3289999998524","0.04255194592825165","1","undefined","1","left","0","66","66","66","66","67","66","NA","66","0","66","0","0","0","66","0","66","66","66","5","66","66","66","Mon Nov 29 12:51:59 2021","332","Loosely based on Logan (1984) Journal of Experimental Psychology: Human Perception and Performance","1","yes","StopSignalTask.osexp","C:\Users\user\Documents\GitHub\StopTaskBCN","no","mono","no","18","no","white","no","yes","768","psycho","66","66","C:/Users/user/Documents/GitHub/StopTaskBCN/subject-1.csv","psycho","Lentiform Loewenfeld","3.3.9","0","left","NA","right","left","NA","370.5337999999756","NA","19721.017399999255","370.5337999999756","NA","2","psycho","1024","2","48000","-16","experiment","","0","1","odd","left","2","23275.250900000174","143887.76040000084","164221.17170000094","164042.7184","NA","NA","NA","NA","NA","NA","164087.85929999978","23275.28429999984","3506.3695999997435","NA","163287.8591000008","3553.3418000013626","163671.37920000096","165123.81149999966","163288.08300000126","133754.2940000003","163671.1747999998","163241.30330000116","Stop-Signal Task","63","28679.838199996128","67","yes","1024"
"1","10","133","255","94.11764705882354","94.11764705882354","425.9875794117076","425.9875794117076","black","no","psycho","psycho","psycho","0","uniform","6632","309.14980000126525","0.04661486731020284","1","undefined","1","left","0","67","67","67","67","68","67","NA","67","0","67","0","0","0","67","0","67","67","67","5","67","67","67","Mon Nov 29 12:51:59 2021","325","Loosely based on Logan (1984) Journal of Experimental Psychology: Human Perception and Performance","1","yes","StopSignalTask.osexp","C:\Users\user\Documents\GitHub\StopTaskBCN","no","mono","no","18","no","white","no","yes","768","psycho","67","67","C:/Users/user/Documents/GitHub/StopTaskBCN/subject-1.csv","psycho","Lentiform Loewenfeld","3.3.9","0","left","NA","right","left","NA","287.3171999999904","NA","19721.017399999255","287.3171999999904","NA","2","psycho","1024","2","48000","-16","experiment","","0","1","odd","left","2","23275.250900000174","143887.76040000084","166204.54710000014","166026.71230000124","NA","NA","NA","NA","NA","NA","166071.20700000087","23275.28429999984","3506.3695999997435","NA","165371.21389999992","3553.3418000013626","165738.56970000087","167112.92370000045","165371.49630000023","133754.2940000003","165738.06960000002","165319.23330000063","Stop-Signal Task","64","28967.155399996118","68","yes","1024"
"1","10","133","255","94.20289855072464","94.20289855072464","424.8833855071752","424.8833855071752","black","no","psycho","psycho","psycho","0","uniform","8589","369.15310000040336","0.04297975317270967","1","undefined","1","left","0","68","68","68","68","69","68","NA","68","0","68","0","0","0","68","0","68","68","68","5","68","68","68","Mon Nov 29 12:51:59 2021","394","Loosely based on Logan (1984) Journal of Experimental Psychology: Human Perception and Performance","1","yes","StopSignalTask.osexp","C:\Users\user\Documents\GitHub\StopTaskBCN","no","mono","no","18","no","white","no","yes","768","psycho","68","68","C:/Users/user/Documents/GitHub/StopTaskBCN/subject-1.csv","psycho","Lentiform Loewenfeld","3.3.9","0","left","NA","right","left","NA","349.79819999897154","NA","19721.017399999255","349.79819999897154","NA","2","psycho","1024","2","48000","-16","experiment","","0","1","odd","left","2","23275.250900000174","143887.76040000084","168304.5235999998","168138.72260000062","NA","NA","NA","NA","NA","NA","168171.20609999984","23275.28429999984","3506.3695999997435","NA","167337.89050000085","3553.3418000013626","167788.0909000014","169200.7491000004","167338.11460000108","133754.2940000003","167787.87689999992","167290.8223000013","Stop-Signal Task","65","29316.95359999509","69","yes","1024"
"1","10","131","255","94.28571428571429","94.28571428571429","422.868138571358","422.868138571358","black","no","psycho","psycho","psycho","0","uniform","6949","301.39129999949364","0.04337189523665184","1","undefined","1","right","0","69","69","69","69","70","69","NA","69","0","69","0","0","0","69","0","69","69","69","5","69","69","69","Mon Nov 29 12:51:59 2021","344","Loosely based on Logan (1984) Journal of Experimental Psychology: Human Perception and Performance","0","yes","StopSignalTask.osexp","C:\Users\user\Documents\GitHub\StopTaskBCN","no","mono","no","18","no","white","no","yes","768","psycho","69","69","C:/Users/user/Documents/GitHub/StopTaskBCN/subject-1.csv","psycho","Lentiform Loewenfeld","3.3.9","0","right","NA","right","right","NA","283.81609999996726","NA","19721.017399999255","283.81609999996726","NA","2","psycho","1024","2","48000","-16","experiment","","0","1","odd","right","8","23275.250900000174","143887.76040000084","170321.24310000107","170122.7305000011","NA","NA","NA","NA","NA","NA","170171.23100000026","23275.28429999984","3506.3695999997435","NA","169437.8962999999","3553.3418000013626","169838.06900000127","171217.77000000112","169438.17730000045","133754.2940000003","169837.86560000043","169391.4832999999","Stop-Signal Task","66","29600.769699995057","70","yes","1024"
"1","10","133","255","94.36619718309859","94.36619718309859","421.8125774647162","421.8125774647162","black","no","psycho","psycho","psycho","0","uniform","8591","359.339099999459","0.0418273891280944","1","undefined","1","left","0","70","70","70","70","71","70","NA","70","0","70","0","0","0","70","0","70","70","70","5","70","70","70","Mon Nov 29 12:51:59 2021","363","Loosely based on Logan (1984) Journal of Experimental Psychology: Human Perception and Performance","1","yes","StopSignalTask.osexp","C:\Users\user\Documents\GitHub\StopTaskBCN","no","mono","no","18","no","white","no","yes","768","psycho","70","70","C:/Users/user/Documents/GitHub/StopTaskBCN/subject-1.csv","psycho","Lentiform Loewenfeld","3.3.9","0","left","NA","right","left","NA","347.9232999997912","NA","19721.017399999255","347.9232999997912","NA","2","psycho","1024","2","48000","-16","experiment","","0","1","odd","left","2","23275.250900000174","143887.76040000084","172354.57470000075","172186.6845000004","NA","NA","NA","NA","NA","NA","172221.23140000075","23275.28429999984","3506.3695999997435","NA","171437.9140000001","3553.3418000013626","171837.9358000002","173252.0224","171438.13030000092","133754.2940000003","171837.881200001","171388.09000000037","Stop-Signal Task","67","29948.692999994848","71","yes","1024"
"1","10","133","255","94.44444444444444","94.44444444444444","421.2119499999418","421.2119499999418","black","no","psycho","psycho","psycho","0","uniform","9347","390.400999998732","0.041767518989914626","1","undefined","1","left","0","71","71","71","71","72","71","NA","71","0","71","0","0","0","71","0","71","71","71","5","71","71","71","Mon Nov 29 12:51:59 2021","380","Loosely based on Logan (1984) Journal of Experimental Psychology: Human Perception and Performance","1","yes","StopSignalTask.osexp","C:\Users\user\Documents\GitHub\StopTaskBCN","no","mono","no","18","no","white","no","yes","768","psycho","71","71","C:/Users/user/Documents/GitHub/StopTaskBCN/subject-1.csv","psycho","Lentiform Loewenfeld","3.3.9","0","left","NA","right","left","NA","378.56740000096033","NA","19721.017399999255","378.56740000096033","NA","2","psycho","1024","2","48000","-16","experiment","","0","1","odd","left","2","23275.250900000174","143887.76040000084","174421.2470000002","174250.7311999998","NA","NA","NA","NA","NA","NA","174287.90730000037","23275.28429999984","3506.3695999997435","NA","173454.58930000133","3553.3418000013626","173871.27770000006","175315.76310000126","173454.65630000035","133754.2940000003","173871.22480000107","173418.6367000002","Stop-Signal Task","68","30327.26039999581","72","yes","1024"
"1","10","133","255","94.52054794520548","94.52054794520548","420.17162054789065","420.17162054789065","black","no","psycho","psycho","psycho","0","uniform","8570","358.93399999989197","0.04188261376894889","1","undefined","1","left","0","72","72","72","72","73","72","NA","72","0","72","0","0","0","72","0","72","72","72","5","72","72","72","Mon Nov 29 12:51:59 2021","319","Loosely based on Logan (1984) Journal of Experimental Psychology: Human Perception and Performance","1","yes","StopSignalTask.osexp","C:\Users\user\Documents\GitHub\StopTaskBCN","no","mono","no","18","no","white","no","yes","768","psycho","72","72","C:/Users/user/Documents/GitHub/StopTaskBCN/subject-1.csv","psycho","Lentiform Loewenfeld","3.3.9","0","left","NA","right","left","NA","345.2679000002099","NA","19721.017399999255","345.2679000002099","NA","2","psycho","1024","2","48000","-16","experiment","","0","1","odd","left","2","23275.250900000174","143887.76040000084","176421.28760000016","176250.72520000138","NA","NA","NA","NA","NA","NA","176287.9544000007","23275.28429999984","3506.3695999997435","NA","175538.0014000002","3553.3418000013626","175904.63120000093","177315.62120000127","175538.26070000103","133754.2940000003","175904.57750000132","175493.84710000048","Stop-Signal Task","69","30672.528299996018","73","yes","1024"
"1","10","133","255","94.5945945945946","94.5945945945946","419.1024472972243","419.1024472972243","black","no","psycho","psycho","psycho","0","uniform","8402","363.4000000001979","0.04325160676031872","1","undefined","1","left","0","73","73","73","73","74","73","NA","73","0","73","0","0","0","73","0","73","73","73","5","73","73","73","Mon Nov 29 12:51:59 2021","388","Loosely based on Logan (1984) Journal of Experimental Psychology: Human Perception and Performance","1","yes","StopSignalTask.osexp","C:\Users\user\Documents\GitHub\StopTaskBCN","no","mono","no","18","no","white","no","yes","768","psycho","73","73","C:/Users/user/Documents/GitHub/StopTaskBCN/subject-1.csv","psycho","Lentiform Loewenfeld","3.3.9","0","left","NA","right","left","NA","341.05279999857885","NA","19721.017399999255","341.05279999857885","NA","2","psycho","1024","2","48000","-16","experiment","","0","1","odd","left","2","23275.250900000174","143887.76040000084","178521.26020000107","178346.72250000038","NA","NA","NA","NA","NA","NA","178387.99050000124","23275.28429999984","3506.3695999997435","NA","177554.6341999998","3553.3418000013626","178004.78980000116","179409.1865999999","177554.87240000002","133754.2940000003","178004.58799999979","177503.87589999993","Stop-Signal Task","70","31013.581099994597","74","yes","1024"
"1","10","133","255","94.66666666666667","94.66666666666667","418.66518399991094","418.66518399991094","black","no","psycho","psycho","psycho","0","uniform","9383","407.2358000011882","0.04340144942994652","1","undefined","1","left","0","74","74","74","74","75","74","NA","74","0","74","0","0","0","74","0","74","74","74","5","74","74","74","Mon Nov 29 12:51:59 2021","391","Loosely based on Logan (1984) Journal of Experimental Psychology: Human Perception and Performance","1","yes","StopSignalTask.osexp","C:\Users\user\Documents\GitHub\StopTaskBCN","no","mono","no","18","no","white","no","yes","768","psycho","74","74","C:/Users/user/Documents/GitHub/StopTaskBCN/subject-1.csv","psycho","Lentiform Loewenfeld","3.3.9","0","left","NA","right","left","NA","386.3076999987243","NA","19721.017399999255","386.3076999987243","NA","2","psycho","1024","2","48000","-16","experiment","","0","1","odd","left","2","23275.250900000174","143887.76040000084","180637.96680000087","180458.68400000109","NA","NA","NA","NA","NA","NA","180504.67930000013","23275.28429999984","3506.3695999997435","NA","179637.9835000007","3553.3418000013626","180071.519000001","181544.13320000094","179638.05570000113","133754.2940000003","180071.30140000116","179598.51470000105","Stop-Signal Task","71","31399.88879999332","75","yes","1024"
