"FixdotCode","PulseDuration","ResponseCode","StopSignalCode","acc","accuracy","average_response_time","avg_rt","background","bidi","canvas_backend","clock_backend","color_backend","compensation","coordinates","coroutines_cycles","coroutines_duration","coroutines_mean_cycle_duration","correct","correct_instructions","correct_kb_response","correct_response","count_CodeSettings","count_ErrorFeedback","count_NoError","count_ResponseCalc","count_ResponseGiven","count_SetlinesZero","count_StartFixdot","count_StartStopsignal","count_StartTarget","count_about_this_example","count_blank","count_block_loop","count_experiment","count_finished","count_fixdot","count_instructions","count_kb_response","count_logger","count_new_advanced_delay","count_stop_signal","count_stop_signal_coroutines","count_target","count_trial_sequence","datetime","delay_new_advanced_delay","description","direction","disable_garbage_collection","experiment_file","experiment_path","font_bold","font_family","font_italic","font_size","font_underline","foreground","form_clicks","fullscreen","height","keyboard_backend","live_row","live_row_block_loop","logfile","mouse_backend","opensesame_codename","opensesame_version","repeat_cycle","response","response_finished","response_instructions","response_kb_response","response_target","response_time","response_time_finished","response_time_instructions","response_time_kb_response","response_time_target","round_decimals","sampler_backend","sound_buf_size","sound_channels","sound_freq","sound_sample_size","start","stop_after","stopcode","subject_nr","subject_parity","target","targetcode","time_CodeSettings","time_ErrorFeedback","time_NoError","time_ResponseCalc","time_ResponseGiven","time_SetlinesZero","time_StartFixdot","time_StartStopsignal","time_StartTarget","time_about_this_example","time_blank","time_block_loop","time_experiment","time_finished","time_fixdot","time_instructions","time_kb_response","time_logger","time_new_advanced_delay","time_stop_signal","time_target","time_trial_sequence","title","total_correct","total_response_time","total_responses","uniform_coordinates","width"
"1","10","133","255","100","100","510.46190000124625","510.46190000124625","black","no","psycho","psycho","psycho","0","uniform","12904","528.8137999996252","0.040980610663331155","1","undefined","1","left","0","0","0","0","0","1","0","NA","0","0","0","0","0","0","0","0","0","0","0","NA","0","0","0","Tue Nov 30 16:08:29 2021","315","Loosely based on Logan (1984) Journal of Experimental Psychology: Human Perception and Performance","1","yes","StopSignalTask.osexp","C:\Users\user\Documents\GitHub\StopTaskBCN","no","mono","no","18","no","white","no","yes","768","psycho","0","0","C:/Users/user/Documents/GitHub/StopTaskBCN/subject-4.csv","psycho","Lentiform Loewenfeld","3.3.9","0","left","NA","right","left","NA","510.46190000124625","NA","11572.098099997675","510.46190000124625","NA","2","psycho","1024","2","48000","-16","experiment","","0","4","even","left","2","15029.506700000638","NA","16273.273700000573","16101.083099998505","NA","NA","NA","NA","NA","NA","16139.930800000002","15029.538200000388","3420.077800001309","NA","15223.29549999995","3456.5164000014192","15590.167199999996","17174.398899998778","15223.374699999113","NA","15589.929900001152","15184.873800000787","Stop-Signal Task","1","510.46190000124625","1","yes","1024"
"1","10","131","255","100","100","457.86820000103035","457.86820000103035","black","no","psycho","psycho","psycho","0","uniform","10175","432.3894000008295","0.04249527272735425","1","undefined","1","right","0","1","1","1","1","2","1","NA","1","0","1","0","0","0","1","0","1","1","1","NA","1","1","1","Tue Nov 30 16:08:29 2021","341","Loosely based on Logan (1984) Journal of Experimental Psychology: Human Perception and Performance","0","yes","StopSignalTask.osexp","C:\Users\user\Documents\GitHub\StopTaskBCN","no","mono","no","18","no","white","no","yes","768","psycho","1","1","C:/Users/user/Documents/GitHub/StopTaskBCN/subject-4.csv","psycho","Lentiform Loewenfeld","3.3.9","0","right","NA","right","right","NA","405.27450000081444","NA","11572.098099997675","405.27450000081444","NA","2","psycho","1024","2","48000","-16","experiment","","0","4","even","right","8","15029.506700000638","NA","18406.612300001143","18229.545099999086","NA","NA","NA","NA","NA","NA","18273.26929999981","15029.538200000388","3420.077800001309","NA","17423.565500001132","3456.5164000014192","17823.485199998686","19307.790800001385","17423.790900000313","NA","17823.282199999085","17377.672099999472","Stop-Signal Task","2","915.7364000020607","2","yes","1024"
"1","10","133","255","100","100","443.8852333332761","443.8852333332761","black","no","psycho","psycho","psycho","0","uniform","10323","432.0957999989332","0.04185758016070263","1","undefined","1","left","0","2","2","2","2","3","2","NA","2","0","2","0","0","0","2","0","2","2","2","NA","2","2","2","Tue Nov 30 16:08:29 2021","362","Loosely based on Logan (1984) Journal of Experimental Psychology: Human Perception and Performance","1","yes","StopSignalTask.osexp","C:\Users\user\Documents\GitHub\StopTaskBCN","no","mono","no","18","no","white","no","yes","768","psycho","2","2","C:/Users/user/Documents/GitHub/StopTaskBCN/subject-4.csv","psycho","Lentiform Loewenfeld","3.3.9","0","left","NA","right","left","NA","415.91929999776767","NA","11572.098099997675","415.91929999776767","NA","2","psycho","1024","2","48000","-16","experiment","","0","4","even","left","2","15029.506700000638","NA","20539.955299998837","20373.11090000003","NA","NA","NA","NA","NA","NA","20406.64370000013","15029.538200000388","3420.077800001309","NA","19539.971400001377","3456.5164000014192","19956.716000000597","21438.208999999915","19540.189100000134","NA","19956.65459999873","19495.579599999473","Stop-Signal Task","3","1331.6556999998284","3","yes","1024"
"1","10","133","255","100","100","443.8951749998523","443.8951749998523","black","no","psycho","psycho","psycho","0","uniform","11053","456.0417000029702","0.04125954039654123","1","undefined","1","left","0","3","3","3","3","4","3","NA","3","0","3","0","0","0","3","0","3","3","3","NA","3","3","3","Tue Nov 30 16:08:29 2021","357","Loosely based on Logan (1984) Journal of Experimental Psychology: Human Perception and Performance","1","yes","StopSignalTask.osexp","C:\Users\user\Documents\GitHub\StopTaskBCN","no","mono","no","18","no","white","no","yes","768","psycho","3","3","C:/Users/user/Documents/GitHub/StopTaskBCN/subject-4.csv","psycho","Lentiform Loewenfeld","3.3.9","0","left","NA","right","left","NA","443.9249999995809","NA","11572.098099997675","443.9249999995809","NA","2","psycho","1024","2","48000","-16","experiment","","0","4","even","left","2","15029.506700000638","NA","22673.304399999324","22501.107000000047","NA","NA","NA","NA","NA","NA","22539.962200000446","15029.538200000388","3420.077800001309","NA","21656.75890000057","3456.5164000014192","22056.665000000066","23570.19759999821","21657.131100000697","NA","22056.6112000015","21607.77120000057","Stop-Signal Task","4","1775.5806999994093","4","yes","1024"
"1","10","133","255","100","100","436.7056399998546","436.7056399998546","black","no","psycho","psycho","psycho","0","uniform","10293","420.05539999809116","0.040809812493742464","1","undefined","1","left","0","4","4","4","4","5","4","NA","4","0","4","0","0","0","4","0","4","4","4","NA","4","4","4","Tue Nov 30 16:08:29 2021","311","Loosely based on Logan (1984) Journal of Experimental Psychology: Human Perception and Performance","1","yes","StopSignalTask.osexp","C:\Users\user\Documents\GitHub\StopTaskBCN","no","mono","no","18","no","white","no","yes","768","psycho","4","4","C:/Users/user/Documents/GitHub/StopTaskBCN/subject-4.csv","psycho","Lentiform Loewenfeld","3.3.9","0","left","NA","right","left","NA","407.9474999998638","NA","11572.098099997675","407.9474999998638","NA","2","psycho","1024","2","48000","-16","experiment","","0","4","even","left","2","15029.506700000638","NA","24739.982600000076","24565.09989999904","NA","NA","NA","NA","NA","NA","24606.644100000267","15029.538200000388","3420.077800001309","NA","23806.65940000108","3456.5164000014192","24156.688700000814","25640.86469999893","23806.87570000009","NA","24156.630500001484","23755.436300001747","Stop-Signal Task","5","2183.528199999273","5","yes","1024"
"1","10","131","255","100","100","436.3697166663769","436.3697166663769","black","no","psycho","psycho","psycho","0","uniform","10743","447.68910000129836","0.041672633342762576","1","undefined","1","right","0","5","5","5","5","6","5","NA","5","0","5","0","0","0","5","0","5","5","5","NA","5","5","5","Tue Nov 30 16:08:29 2021","371","Loosely based on Logan (1984) Journal of Experimental Psychology: Human Perception and Performance","0","yes","StopSignalTask.osexp","C:\Users\user\Documents\GitHub\StopTaskBCN","no","mono","no","18","no","white","no","yes","768","psycho","5","5","C:/Users/user/Documents/GitHub/StopTaskBCN/subject-4.csv","psycho","Lentiform Loewenfeld","3.3.9","0","right","NA","right","right","NA","434.69009999898844","NA","11572.098099997675","434.69009999898844","NA","2","psycho","1024","2","48000","-16","experiment","","0","4","even","right","8","15029.506700000638","NA","26906.715100001747","26725.379100000282","NA","NA","NA","NA","NA","NA","26773.317999999563","15029.538200000388","3420.077800001309","NA","25873.35389999862","3456.5164000014192","26290.094500000123","27809.271800000715","25873.575300000084","NA","26290.030200001638","25824.850699998933","Stop-Signal Task","6","2618.2182999982615","6","yes","1024"
"1","10","131","255","100","100","442.3674285712228","442.3674285712228","black","no","psycho","psycho","psycho","0","uniform","11926","500.01500000144006","0.04192646318979038","1","undefined","1","right","0","6","6","6","6","7","6","NA","6","0","6","0","0","0","6","0","6","6","6","NA","6","6","6","Tue Nov 30 16:08:29 2021","333","Loosely based on Logan (1984) Journal of Experimental Psychology: Human Perception and Performance","0","yes","StopSignalTask.osexp","C:\Users\user\Documents\GitHub\StopTaskBCN","no","mono","no","18","no","white","no","yes","768","psycho","6","6","C:/Users/user/Documents/GitHub/StopTaskBCN/subject-4.csv","psycho","Lentiform Loewenfeld","3.3.9","0","right","NA","right","right","NA","478.353700000298","NA","11572.098099997675","478.353700000298","NA","2","psycho","1024","2","48000","-16","experiment","","0","4","even","right","8","15029.506700000638","NA","29039.98810000121","28869.053200000053","NA","NA","NA","NA","NA","NA","28906.65799999988","15029.538200000388","3420.077800001309","NA","28006.691200000205","3456.5164000014192","28390.209299999697","29948.087400000077","28006.76079999903","NA","28389.983400000347","27970.668099998875","Stop-Signal Task","7","3096.5719999985595","7","yes","1024"
"1","10","133","255","100","100","447.44794999996884","447.44794999996884","black","no","psycho","psycho","psycho","0","uniform","12063","508.09490000028745","0.042120111083502235","1","undefined","1","left","0","7","7","7","7","8","7","NA","7","0","7","0","0","0","7","0","7","7","7","NA","7","7","7","Tue Nov 30 16:08:29 2021","373","Loosely based on Logan (1984) Journal of Experimental Psychology: Human Perception and Performance","1","yes","StopSignalTask.osexp","C:\Users\user\Documents\GitHub\StopTaskBCN","no","mono","no","18","no","white","no","yes","768","psycho","7","7","C:/Users/user/Documents/GitHub/StopTaskBCN/subject-4.csv","psycho","Lentiform Loewenfeld","3.3.9","0","left","NA","right","left","NA","483.01160000119125","NA","11572.098099997675","483.01160000119125","NA","2","psycho","1024","2","48000","-16","experiment","","0","4","even","left","2","15029.506700000638","NA","31323.35310000053","31157.09380000044","NA","NA","NA","NA","NA","NA","31190.003700001398","15029.538200000388","3420.077800001309","NA","30240.109099999245","3456.5164000014192","30673.56429999927","32217.997799998557","30240.42339999869","NA","30673.36240000077","30195.058099998278","Stop-Signal Task","8","3579.5835999997507","8","yes","1024"
"1","10","133","255","100","100","448.8121333330734","448.8121333330734","black","no","psycho","psycho","psycho","0","uniform","11346","477.0919000002323","0.042049347787787086","1","undefined","1","left","0","8","8","8","8","9","8","NA","8","0","8","0","0","0","8","0","8","8","8","NA","8","8","8","Tue Nov 30 16:08:29 2021","395","Loosely based on Logan (1984) Journal of Experimental Psychology: Human Perception and Performance","1","yes","StopSignalTask.osexp","C:\Users\user\Documents\GitHub\StopTaskBCN","no","mono","no","18","no","white","no","yes","768","psycho","8","8","C:/Users/user/Documents/GitHub/StopTaskBCN/subject-4.csv","psycho","Lentiform Loewenfeld","3.3.9","0","left","NA","right","left","NA","459.72559999790974","NA","11572.098099997675","459.72559999790974","NA","2","psycho","1024","2","48000","-16","experiment","","0","4","even","left","2","15029.506700000638","NA","33490.03670000093","33317.08620000063","NA","NA","NA","NA","NA","NA","33356.726199999684","15029.538200000388","3420.077800001309","NA","32423.381900000095","3456.5164000014192","32856.88780000055","34389.68450000175","32423.60159999953","NA","32856.68539999824","32378.106600001047","Stop-Signal Task","9","4039.3091999976605","9","yes","1024"
"1","10","131","255","100","100","444.62348999950336","444.62348999950336","black","no","psycho","psycho","psycho","0","uniform","10308","431.0800000021118","0.041819945673468355","1","undefined","1","right","0","9","9","9","9","10","9","NA","9","0","9","0","0","0","9","0","9","9","9","NA","9","9","9","Tue Nov 30 16:08:29 2021","308","Loosely based on Logan (1984) Journal of Experimental Psychology: Human Perception and Performance","0","yes","StopSignalTask.osexp","C:\Users\user\Documents\GitHub\StopTaskBCN","no","mono","no","18","no","white","no","yes","768","psycho","9","9","C:/Users/user/Documents/GitHub/StopTaskBCN/subject-4.csv","psycho","Lentiform Loewenfeld","3.3.9","0","right","NA","right","right","NA","406.92569999737316","NA","11572.098099997675","406.92569999737316","NA","2","psycho","1024","2","48000","-16","experiment","","0","4","even","right","8","15029.506700000638","NA","35556.825200001185","35381.07709999895","NA","NA","NA","NA","NA","NA","35423.42120000103","15029.538200000388","3420.077800001309","NA","34623.460499999055","3456.5164000014192","34973.60480000134","36456.16710000104","34623.734000000695","NA","34973.39809999903","34570.753299998614","Stop-Signal Task","10","4446.234899995034","10","yes","1024"
"1","10","131","255","100","100","443.6212909088433","443.6212909088433","black","no","psycho","psycho","psycho","0","uniform","10688","457.06500000233063","0.04276431511997854","1","undefined","1","right","0","10","10","10","10","11","10","NA","10","0","10","0","0","0","10","0","10","10","10","NA","10","10","10","Tue Nov 30 16:08:29 2021","357","Loosely based on Logan (1984) Journal of Experimental Psychology: Human Perception and Performance","0","yes","StopSignalTask.osexp","C:\Users\user\Documents\GitHub\StopTaskBCN","no","mono","no","18","no","white","no","yes","768","psycho","10","10","C:/Users/user/Documents/GitHub/StopTaskBCN/subject-4.csv","psycho","Lentiform Loewenfeld","3.3.9","0","right","NA","right","right","NA","433.59930000224267","NA","11572.098099997675","433.59930000224267","NA","2","psycho","1024","2","48000","-16","experiment","","0","4","even","right","8","15029.506700000638","NA","37706.72769999874","37541.04500000176","NA","NA","NA","NA","NA","NA","37573.376699998335","15029.538200000388","3420.077800001309","NA","36690.08300000132","3456.5164000014192","37106.95349999878","38606.475699998555","36690.31239999822","NA","37106.747599998926","36645.6614000017","Stop-Signal Task","11","4879.834199997276","11","yes","1024"
"1","10","133","255","100","100","442.29767499988765","442.29767499988765","black","no","psycho","psycho","psycho","0","uniform","10675","441.0545999999158","0.04131659016392654","1","undefined","1","left","0","11","11","11","11","12","11","NA","11","0","11","0","0","0","11","0","11","11","11","NA","11","11","11","Tue Nov 30 16:08:29 2021","381","Loosely based on Logan (1984) Journal of Experimental Psychology: Human Perception and Performance","1","yes","StopSignalTask.osexp","C:\Users\user\Documents\GitHub\StopTaskBCN","no","mono","no","18","no","white","no","yes","768","psycho","11","11","C:/Users/user/Documents/GitHub/StopTaskBCN/subject-4.csv","psycho","Lentiform Loewenfeld","3.3.9","0","left","NA","right","left","NA","427.73790000137524","NA","11572.098099997675","427.73790000137524","NA","2","psycho","1024","2","48000","-16","experiment","","0","4","even","left","2","15029.506700000638","NA","39856.71970000112","39685.04060000123","NA","NA","NA","NA","NA","NA","39723.42189999836","15029.538200000388","3420.077800001309","NA","38840.12470000016","3456.5164000014192","39256.79820000005","40750.266800001555","38840.38470000087","NA","39256.74490000165","38787.26090000055","Stop-Signal Task","12","5307.5720999986515","12","yes","1024"
"1","10","133","255","100","100","444.5624384612669","444.5624384612669","black","no","psycho","psycho","psycho","0","uniform","11793","488.0621999982395","0.04138575426085301","1","undefined","1","left","0","12","12","12","12","13","12","NA","12","0","12","0","0","0","12","0","12","12","12","NA","12","12","12","Tue Nov 30 16:08:29 2021","355","Loosely based on Logan (1984) Journal of Experimental Psychology: Human Perception and Performance","1","yes","StopSignalTask.osexp","C:\Users\user\Documents\GitHub\StopTaskBCN","no","mono","no","18","no","white","no","yes","768","psycho","12","12","C:/Users/user/Documents/GitHub/StopTaskBCN/subject-4.csv","psycho","Lentiform Loewenfeld","3.3.9","0","left","NA","right","left","NA","471.739599997818","NA","11572.098099997675","471.739599997818","NA","2","psycho","1024","2","48000","-16","experiment","","0","4","even","left","2","15029.506700000638","NA","42006.76400000157","41829.055700000026","NA","NA","NA","NA","NA","NA","41873.40680000125","15029.538200000388","3420.077800001309","NA","40956.76380000077","3456.5164000014192","41356.80140000113","42911.35959999883","40956.832299998496","NA","41356.74909999943","40921.21069999848","Stop-Signal Task","13","5779.3116999964695","13","yes","1024"
"1","10","131","255","100","100","463.15079285704996","463.15079285704996","black","no","psycho","psycho","psycho","0","uniform","17552","727.0491999988735","0.04142258432081093","1","undefined","1","right","0","13","13","13","13","14","13","NA","13","0","13","0","0","0","13","0","13","13","13","NA","13","13","13","Tue Nov 30 16:08:29 2021","352","Loosely based on Logan (1984) Journal of Experimental Psychology: Human Perception and Performance","0","yes","StopSignalTask.osexp","C:\Users\user\Documents\GitHub\StopTaskBCN","no","mono","no","18","no","white","no","yes","768","psycho","13","13","C:/Users/user/Documents/GitHub/StopTaskBCN/subject-4.csv","psycho","Lentiform Loewenfeld","3.3.9","0","right","NA","right","right","NA","704.79940000223","NA","11572.098099997675","704.79940000223","NA","2","psycho","1024","2","48000","-16","experiment","","0","4","even","right","8","15029.506700000638","NA","44406.7498000004","44229.02769999928","NA","NA","NA","NA","NA","NA","44273.40980000008","15029.538200000388","3420.077800001309","NA","43123.443399999815","3456.5164000014192","43523.72209999885","45306.83119999958","43123.6616999995","NA","43523.42750000025","43073.01559999905","Stop-Signal Task","14","6484.1110999986995","14","yes","1024"
"1","10","133","255","100","100","459.9857399999261","459.9857399999261","black","no","psycho","psycho","psycho","0","uniform","10461","429.24700000003213","0.04103307523181647","1","undefined","1","left","0","14","14","14","14","15","14","NA","14","0","14","0","0","0","14","0","14","14","14","NA","14","14","14","Tue Nov 30 16:08:29 2021","379","Loosely based on Logan (1984) Journal of Experimental Psychology: Human Perception and Performance","1","yes","StopSignalTask.osexp","C:\Users\user\Documents\GitHub\StopTaskBCN","no","mono","no","18","no","white","no","yes","768","psycho","14","14","C:/Users/user/Documents/GitHub/StopTaskBCN/subject-4.csv","psycho","Lentiform Loewenfeld","3.3.9","0","left","NA","right","left","NA","415.6750000001921","NA","11572.098099997675","415.6750000001921","NA","2","psycho","1024","2","48000","-16","experiment","","0","4","even","left","2","15029.506700000638","NA","46556.78089999856","46373.18940000114","NA","NA","NA","NA","NA","NA","46423.520799999096","15029.538200000388","3420.077800001309","NA","45540.15749999962","3456.5164000014192","45956.83629999985","47450.55869999851","45540.239300000394","NA","45956.78350000162","45499.907400000666","Stop-Signal Task","15","6899.786099998892","15","yes","1024"
"1","10","133","255","100","100","458.87360624988105","458.87360624988105","black","no","psycho","psycho","psycho","0","uniform","10987","460.1265000019339","0.04187917538927222","1","undefined","1","left","0","15","15","15","15","16","15","NA","15","0","15","0","0","0","15","0","15","15","15","NA","15","15","15","Tue Nov 30 16:08:29 2021","346","Loosely based on Logan (1984) Journal of Experimental Psychology: Human Perception and Performance","1","yes","StopSignalTask.osexp","C:\Users\user\Documents\GitHub\StopTaskBCN","no","mono","no","18","no","white","no","yes","768","psycho","15","15","C:/Users/user/Documents/GitHub/StopTaskBCN/subject-4.csv","psycho","Lentiform Loewenfeld","3.3.9","0","left","NA","right","left","NA","442.1915999992052","NA","11572.098099997675","442.1915999992052","NA","2","psycho","1024","2","48000","-16","experiment","","0","4","even","left","2","15029.506700000638","NA","48706.778299998405","48533.028800000466","NA","NA","NA","NA","NA","NA","48573.48170000114","15029.538200000388","3420.077800001309","NA","47690.114100001665","3456.5164000014192","48090.32429999934","49606.6909000001","47690.328199998476","NA","48090.12100000109","47640.93739999953","Stop-Signal Task","16","7341.977699998097","16","yes","1024"
"1","10","133","255","100","100","457.57396470584996","457.57396470584996","black","no","psycho","psycho","psycho","0","uniform","10945","460.6253000019933","0.04208545454563667","1","undefined","1","left","0","16","16","16","16","17","16","NA","16","0","16","0","0","0","16","0","16","16","16","NA","16","16","16","Tue Nov 30 16:08:29 2021","345","Loosely based on Logan (1984) Journal of Experimental Psychology: Human Perception and Performance","1","yes","StopSignalTask.osexp","C:\Users\user\Documents\GitHub\StopTaskBCN","no","mono","no","18","no","white","no","yes","768","psycho","16","16","C:/Users/user/Documents/GitHub/StopTaskBCN/subject-4.csv","psycho","Lentiform Loewenfeld","3.3.9","0","left","NA","right","left","NA","436.77970000135247","NA","11572.098099997675","436.77970000135247","NA","2","psycho","1024","2","48000","-16","experiment","","0","4","even","left","2","15029.506700000638","NA","50840.13369999957","50661.00379999989","NA","NA","NA","NA","NA","NA","50706.812100001116","15029.538200000388","3420.077800001309","NA","49823.55129999996","3456.5164000014192","50223.6785999994","51750.795600000856","49823.767699999735","NA","50223.47269999955","49772.02069999839","Stop-Signal Task","17","7778.757399999449","17","yes","1024"
"1","10","131","255","100","100","458.79963888870003","458.79963888870003","black","no","psycho","psycho","psycho","0","uniform","12021","495.15400000018417","0.04119074952168573","1","undefined","1","right","0","17","17","17","17","18","17","NA","17","0","17","0","0","0","17","0","17","17","17","NA","17","17","17","Tue Nov 30 16:08:29 2021","345","Loosely based on Logan (1984) Journal of Experimental Psychology: Human Perception and Performance","0","yes","StopSignalTask.osexp","C:\Users\user\Documents\GitHub\StopTaskBCN","no","mono","no","18","no","white","no","yes","768","psycho","17","17","C:/Users/user/Documents/GitHub/StopTaskBCN/subject-4.csv","psycho","Lentiform Loewenfeld","3.3.9","0","right","NA","right","right","NA","479.6360999971512","NA","11572.098099997675","479.6360999971512","NA","2","psycho","1024","2","48000","-16","experiment","","0","4","even","right","8","15029.506700000638","NA","53006.79550000132","52837.03400000013","NA","NA","NA","NA","NA","NA","52873.50919999881","15029.538200000388","3420.077800001309","NA","51956.83320000171","3456.5164000014192","52356.85690000173","53906.91059999881","51956.91839999927","NA","52356.80030000003","51920.474899998226","Stop-Signal Task","18","8258.3934999966","18","yes","1024"
"1","10","131","255","100","100","459.50581052621646","459.50581052621646","black","no","psycho","psycho","psycho","0","uniform","11400","487.70560000048135","0.04278119298249836","1","undefined","1","right","0","18","18","18","18","19","18","NA","18","0","18","0","0","0","18","0","18","18","18","NA","18","18","18","Tue Nov 30 16:08:29 2021","348","Loosely based on Logan (1984) Journal of Experimental Psychology: Human Perception and Performance","0","yes","StopSignalTask.osexp","C:\Users\user\Documents\GitHub\StopTaskBCN","no","mono","no","18","no","white","no","yes","768","psycho","18","18","C:/Users/user/Documents/GitHub/StopTaskBCN/subject-4.csv","psycho","Lentiform Loewenfeld","3.3.9","0","right","NA","right","right","NA","472.21690000151284","NA","11572.098099997675","472.21690000151284","NA","2","psycho","1024","2","48000","-16","experiment","","0","4","even","right","8","15029.506700000638","NA","55190.1414999993","55013.007800000196","NA","NA","NA","NA","NA","NA","55056.85599999924","15029.538200000388","3420.077800001309","NA","54140.19030000054","3456.5164000014192","54540.27109999879","56092.618599999696","54140.421799998876","NA","54540.20269999819","54097.477600000275","Stop-Signal Task","19","8730.610399998113","19","yes","1024"
"1","10","131","255","100","100","460.66542499993375","460.66542499993375","black","no","psycho","psycho","psycho","0","uniform","12090","505.16719999723136","0.04178388751011012","1","undefined","1","right","0","19","19","19","19","20","19","NA","19","0","19","0","0","0","19","0","19","19","19","NA","19","19","19","Tue Nov 30 16:08:29 2021","333","Loosely based on Logan (1984) Journal of Experimental Psychology: Human Perception and Performance","0","yes","StopSignalTask.osexp","C:\Users\user\Documents\GitHub\StopTaskBCN","no","mono","no","18","no","white","no","yes","768","psycho","19","19","C:/Users/user/Documents/GitHub/StopTaskBCN/subject-4.csv","psycho","Lentiform Loewenfeld","3.3.9","0","right","NA","right","right","NA","482.6981000005617","NA","11572.098099997675","482.6981000005617","NA","2","psycho","1024","2","48000","-16","experiment","","0","4","even","right","8","15029.506700000638","NA","57340.15870000076","57157.0341000006","NA","NA","NA","NA","NA","NA","57206.870800000615","15029.538200000388","3420.077800001309","NA","56290.19160000098","3456.5164000014192","56673.762800000986","58246.40720000025","56290.25950000141","NA","56673.550700001215","56253.131599998596","Stop-Signal Task","20","9213.308499998675","20","yes","1024"
"1","10","131","255","100","100","459.8425285713304","459.8425285713304","black","no","psycho","psycho","psycho","0","uniform","10938","463.4589000015694","0.0423714481625132","1","undefined","1","right","0","20","20","20","20","21","20","NA","20","0","20","0","0","0","20","0","20","20","20","NA","20","20","20","Tue Nov 30 16:08:29 2021","345","Loosely based on Logan (1984) Journal of Experimental Psychology: Human Perception and Performance","0","yes","StopSignalTask.osexp","C:\Users\user\Documents\GitHub\StopTaskBCN","no","mono","no","18","no","white","no","yes","768","psycho","20","20","C:/Users/user/Documents/GitHub/StopTaskBCN/subject-4.csv","psycho","Lentiform Loewenfeld","3.3.9","0","right","NA","right","right","NA","443.3845999992627","NA","11572.098099997675","443.3845999992627","NA","2","psycho","1024","2","48000","-16","experiment","","0","4","even","right","8","15029.506700000638","NA","59473.55030000108","59301.3858000013","NA","NA","NA","NA","NA","NA","59340.17609999864","15029.538200000388","3420.077800001309","NA","58456.86869999918","3456.5164000014192","58857.067000000825","60371.27709999913","58456.93599999868","NA","58856.86160000114","58417.708400000265","Stop-Signal Task","21","9656.693099997938","21","yes","1024"
"1","10","131","255","100","100","458.75425909071055","458.75425909071055","black","no","psycho","psycho","psycho","0","uniform","10487","462.61199999935343","0.0441129016877423","1","undefined","1","right","0","21","21","21","21","22","21","NA","21","0","21","0","0","0","21","0","21","21","21","NA","21","21","21","Tue Nov 30 16:08:29 2021","387","Loosely based on Logan (1984) Journal of Experimental Psychology: Human Perception and Performance","0","yes","StopSignalTask.osexp","C:\Users\user\Documents\GitHub\StopTaskBCN","no","mono","no","18","no","white","no","yes","768","psycho","21","21","C:/Users/user/Documents/GitHub/StopTaskBCN/subject-4.csv","psycho","Lentiform Loewenfeld","3.3.9","0","right","NA","right","right","NA","435.90059999769437","NA","11572.098099997675","435.90059999769437","NA","2","psycho","1024","2","48000","-16","experiment","","0","4","even","right","8","15029.506700000638","NA","61656.85500000109","61477.046100000734","NA","NA","NA","NA","NA","NA","61523.55270000044","15029.538200000388","3420.077800001309","NA","60590.21070000017","3456.5164000014192","61040.61200000069","62562.62860000061","60590.421400000196","NA","61040.301799999725","60543.157100000826","Stop-Signal Task","22","10092.593699995632","22","yes","1024"
"1","10","133","255","100","100","458.8922739129212","458.8922739129212","black","no","psycho","psycho","psycho","0","uniform","11385","487.44250000163447","0.04281444883633153","1","undefined","1","left","0","22","22","22","22","23","22","NA","22","0","22","0","0","0","22","0","22","22","22","NA","22","22","22","Tue Nov 30 16:08:29 2021","335","Loosely based on Logan (1984) Journal of Experimental Psychology: Human Perception and Performance","1","yes","StopSignalTask.osexp","C:\Users\user\Documents\GitHub\StopTaskBCN","no","mono","no","18","no","white","no","yes","768","psycho","22","22","C:/Users/user/Documents/GitHub/StopTaskBCN/subject-4.csv","psycho","Lentiform Loewenfeld","3.3.9","0","left","NA","right","left","NA","461.92860000155633","NA","11572.098099997675","461.92860000155633","NA","2","psycho","1024","2","48000","-16","experiment","","0","4","even","left","2","15029.506700000638","NA","63823.55390000157","63653.00550000029","NA","NA","NA","NA","NA","NA","63690.23820000075","15029.538200000388","3420.077800001309","NA","62790.24109999955","3456.5164000014192","63190.497499999765","64718.6217999988","62790.46089999974","NA","63190.213400001085","62746.94100000124","Stop-Signal Task","23","10554.522299997188","23","yes","1024"
"1","10","131","255","100","100","452.74332499987696","452.74332499987696","black","no","psycho","psycho","psycho","0","uniform","7775","328.1442999978026","0.04220505466209679","1","undefined","1","right","0","23","23","23","23","24","23","NA","23","0","23","0","0","0","23","0","23","23","23","NA","23","23","23","Tue Nov 30 16:08:29 2021","359","Loosely based on Logan (1984) Journal of Experimental Psychology: Human Perception and Performance","0","yes","StopSignalTask.osexp","C:\Users\user\Documents\GitHub\StopTaskBCN","no","mono","no","18","no","white","no","yes","768","psycho","23","23","C:/Users/user/Documents/GitHub/StopTaskBCN/subject-4.csv","psycho","Lentiform Loewenfeld","3.3.9","0","right","NA","right","right","NA","311.31749999985914","NA","11572.098099997675","311.31749999985914","NA","2","psycho","1024","2","48000","-16","experiment","","0","4","even","right","8","15029.506700000638","NA","65840.24660000068","65668.9933000016","NA","NA","NA","NA","NA","NA","65706.90240000113","15029.538200000388","3420.077800001309","NA","64940.28790000084","3456.5164000014192","65357.109699998546","66739.09780000031","64940.41780000043","NA","65356.902499999705","64899.654900000314","Stop-Signal Task","24","10865.839799997048","24","yes","1024"
"1","10","131","255","100","100","451.46766399993794","451.46766399993794","black","no","psycho","psycho","psycho","0","uniform","10430","437.1986000005563","0.04191741131357204","1","undefined","1","right","0","24","24","24","24","25","24","NA","24","0","24","0","0","0","24","0","24","24","24","NA","24","24","24","Tue Nov 30 16:08:29 2021","394","Loosely based on Logan (1984) Journal of Experimental Psychology: Human Perception and Performance","0","yes","StopSignalTask.osexp","C:\Users\user\Documents\GitHub\StopTaskBCN","no","mono","no","18","no","white","no","yes","768","psycho","24","24","C:/Users/user/Documents/GitHub/StopTaskBCN/subject-4.csv","psycho","Lentiform Loewenfeld","3.3.9","0","right","NA","right","right","NA","420.851800001401","NA","11572.098099997675","420.851800001401","NA","2","psycho","1024","2","48000","-16","experiment","","0","4","even","right","8","15029.506700000638","NA","68023.58420000019","67845.0245999993","NA","NA","NA","NA","NA","NA","67890.22409999961","15029.538200000388","3420.077800001309","NA","66990.29670000164","3456.5164000014192","67423.62149999826","68936.76960000084","66990.57199999879","NA","67423.56300000029","66942.5760999984","Stop-Signal Task","25","11286.691599998449","25","yes","1024"
"1","10","131","255","100","100","449.4142230768585","449.4142230768585","black","no","psycho","psycho","psycho","0","uniform","10024","413.93299999981537","0.04129419393453864","1","undefined","1","right","0","25","25","25","25","26","25","NA","25","0","25","0","0","0","25","0","25","25","25","NA","25","25","25","Tue Nov 30 16:08:29 2021","358","Loosely based on Logan (1984) Journal of Experimental Psychology: Human Perception and Performance","0","yes","StopSignalTask.osexp","C:\Users\user\Documents\GitHub\StopTaskBCN","no","mono","no","18","no","white","no","yes","768","psycho","25","25","C:/Users/user/Documents/GitHub/StopTaskBCN/subject-4.csv","psycho","Lentiform Loewenfeld","3.3.9","0","right","NA","right","right","NA","398.0781999998726","NA","11572.098099997675","398.0781999998726","NA","2","psycho","1024","2","48000","-16","experiment","","0","4","even","right","8","15029.506700000638","NA","70156.97730000102","69988.98769999869","NA","NA","NA","NA","NA","NA","70023.61709999968","15029.538200000388","3420.077800001309","NA","69173.59980000037","3456.5164000014192","69590.31669999968","71055.67589999919","69173.81430000023","NA","69590.25850000035","69127.78049999906","Stop-Signal Task","26","11684.769799998321","26","yes","1024"
"1","10","133","255","100","100","448.6003962961991","448.6003962961991","black","no","psycho","psycho","psycho","0","uniform","10800","438.1853000013507","0.04057271296308803","1","undefined","1","left","0","26","26","26","26","27","26","NA","26","0","26","0","0","0","26","0","26","26","26","NA","26","26","26","Tue Nov 30 16:08:29 2021","330","Loosely based on Logan (1984) Journal of Experimental Psychology: Human Perception and Performance","1","yes","StopSignalTask.osexp","C:\Users\user\Documents\GitHub\StopTaskBCN","no","mono","no","18","no","white","no","yes","768","psycho","26","26","C:/Users/user/Documents/GitHub/StopTaskBCN/subject-4.csv","psycho","Lentiform Loewenfeld","3.3.9","0","left","NA","right","left","NA","427.44089999905555","NA","11572.098099997675","427.44089999905555","NA","2","psycho","1024","2","48000","-16","experiment","","0","4","even","left","2","15029.506700000638","NA","72256.91999999981","72085.00609999828","NA","NA","NA","NA","NA","NA","72123.69860000035","15029.538200000388","3420.077800001309","NA","71290.31400000167","3456.5164000014192","71656.97240000009","73150.86109999902","71290.39589999957","NA","71656.91629999856","71249.76099999913","Stop-Signal Task","27","12112.210699997377","27","yes","1024"
"1","10","131","255","100","100","469.3327607141587","469.3327607141587","black","no","psycho","psycho","psycho","0","uniform","25612","1046.8196000001626","0.04087223176636587","1","undefined","1","right","0","27","27","27","27","28","27","NA","27","0","27","0","0","0","27","0","27","27","27","NA","27","27","27","Tue Nov 30 16:08:29 2021","381","Loosely based on Logan (1984) Journal of Experimental Psychology: Human Perception and Performance","0","yes","StopSignalTask.osexp","C:\Users\user\Documents\GitHub\StopTaskBCN","no","mono","no","18","no","white","no","yes","768","psycho","27","27","C:/Users/user/Documents/GitHub/StopTaskBCN/subject-4.csv","psycho","Lentiform Loewenfeld","3.3.9","0","right","NA","right","right","NA","1029.1065999990678","NA","11572.098099997675","1029.1065999990678","NA","2","psycho","1024","2","48000","-16","experiment","","0","4","even","right","8","15029.506700000638","NA","75006.9524999999","74836.99049999996","NA","NA","NA","NA","NA","NA","74873.65919999866","15029.538200000388","3420.077800001309","NA","73357.02759999913","3456.5164000014192","73807.2796000015","75905.91230000064","73357.2576000006","NA","73807.00269999943","73315.09789999836","Stop-Signal Task","28","13141.317299996444","28","yes","1024"
"1","10","133","255","100","100","467.2651517239815","467.2651517239815","black","no","psycho","psycho","psycho","0","uniform","10365","420.1288999975077","0.04053342016377305","1","undefined","1","left","0","28","28","28","28","29","28","NA","28","0","28","0","0","0","28","0","28","28","28","NA","28","28","28","Tue Nov 30 16:08:29 2021","339","Loosely based on Logan (1984) Journal of Experimental Psychology: Human Perception and Performance","1","yes","StopSignalTask.osexp","C:\Users\user\Documents\GitHub\StopTaskBCN","no","mono","no","18","no","white","no","yes","768","psycho","28","28","C:/Users/user/Documents/GitHub/StopTaskBCN/subject-4.csv","psycho","Lentiform Loewenfeld","3.3.9","0","left","NA","right","left","NA","409.37209999901825","NA","11572.098099997675","409.37209999901825","NA","2","psycho","1024","2","48000","-16","experiment","","0","4","even","left","2","15029.506700000638","NA","77090.30310000162","76916.95669999899","NA","NA","NA","NA","NA","NA","76956.94809999986","15029.538200000388","3420.077800001309","NA","76140.34249999895","3456.5164000014192","76506.98940000075","77983.87880000155","76140.42229999905","NA","76506.93699999829","76101.33750000023","Stop-Signal Task","29","13550.689399995463","29","yes","1024"
"1","10","131","255","100","100","471.1132399998557","471.1132399998557","black","no","psycho","psycho","psycho","0","uniform","14582","598.320999997668","0.041031477163466466","1","undefined","1","right","0","29","29","29","29","30","29","NA","29","0","29","0","0","0","29","0","29","29","29","NA","29","29","29","Tue Nov 30 16:08:29 2021","323","Loosely based on Logan (1984) Journal of Experimental Psychology: Human Perception and Performance","0","yes","StopSignalTask.osexp","C:\Users\user\Documents\GitHub\StopTaskBCN","no","mono","no","18","no","white","no","yes","768","psycho","29","29","C:/Users/user/Documents/GitHub/StopTaskBCN/subject-4.csv","psycho","Lentiform Loewenfeld","3.3.9","0","right","NA","right","right","NA","582.7078000002075","NA","11572.098099997675","582.7078000002075","NA","2","psycho","1024","2","48000","-16","experiment","","0","4","even","right","8","15029.506700000638","NA","79323.67009999871","79157.11809999993","NA","NA","NA","NA","NA","NA","79190.29020000016","15029.538200000388","3420.077800001309","NA","78206.99080000122","3456.5164000014192","78573.674700001","80218.09420000136","78207.06110000174","NA","78573.61799999853","78168.31989999991","Stop-Signal Task","30","14133.39719999567","30","yes","1024"
"1","10","131","255","100","100","470.7778741934406","470.7778741934406","black","no","psycho","psycho","psycho","0","uniform","11530","476.3252000011562","0.04131181266271953","1","undefined","1","right","0","30","30","30","30","31","30","NA","30","0","30","0","0","0","30","0","30","30","30","NA","30","30","30","Tue Nov 30 16:08:29 2021","326","Loosely based on Logan (1984) Journal of Experimental Psychology: Human Perception and Performance","0","yes","StopSignalTask.osexp","C:\Users\user\Documents\GitHub\StopTaskBCN","no","mono","no","18","no","white","no","yes","768","psycho","30","30","C:/Users/user/Documents/GitHub/StopTaskBCN/subject-4.csv","psycho","Lentiform Loewenfeld","3.3.9","0","right","NA","right","right","NA","460.71690000098897","NA","11572.098099997675","460.71690000098897","NA","2","psycho","1024","2","48000","-16","experiment","","0","4","even","right","8","15029.506700000638","NA","81457.00139999826","81285.13259999818","NA","NA","NA","NA","NA","NA","81323.67560000057","15029.538200000388","3420.077800001309","NA","80440.35230000009","3456.5164000014192","80823.68489999863","82369.09670000023","80440.56990000172","NA","80823.63149999946","80392.43050000005","Stop-Signal Task","31","14594.11409999666","31","yes","1024"
"1","10","133","255","100","100","467.73145624990775","467.73145624990775","black","no","psycho","psycho","psycho","0","uniform","9189","385.3577999980189","0.04193685928806387","1","undefined","1","left","0","31","31","31","31","32","31","NA","31","0","31","0","0","0","31","0","31","31","31","NA","31","31","31","Tue Nov 30 16:08:29 2021","367","Loosely based on Logan (1984) Journal of Experimental Psychology: Human Perception and Performance","1","yes","StopSignalTask.osexp","C:\Users\user\Documents\GitHub\StopTaskBCN","no","mono","no","18","no","white","no","yes","768","psycho","31","31","C:/Users/user/Documents/GitHub/StopTaskBCN/subject-4.csv","psycho","Lentiform Loewenfeld","3.3.9","0","left","NA","right","left","NA","373.2925000003888","NA","11572.098099997675","373.2925000003888","NA","2","psycho","1024","2","48000","-16","experiment","","0","4","even","left","2","15029.506700000638","NA","83557.02680000104","83381.02050000089","NA","NA","NA","NA","NA","NA","83423.75969999921","15029.538200000388","3420.077800001309","NA","82590.36660000129","3456.5164000014192","83007.13309999992","84464.65320000061","82590.59740000157","NA","83007.06100000025","82542.67419999815","Stop-Signal Task","32","14967.406599997048","32","yes","1024"
"1","10","133","255","100","100","467.73970606051137","467.73970606051137","black","no","psycho","psycho","psycho","0","uniform","11774","484.221400001843","0.04112632920008859","1","undefined","1","left","0","32","32","32","32","33","32","NA","32","0","32","0","0","0","32","0","32","32","32","NA","32","32","32","Tue Nov 30 16:08:29 2021","324","Loosely based on Logan (1984) Journal of Experimental Psychology: Human Perception and Performance","1","yes","StopSignalTask.osexp","C:\Users\user\Documents\GitHub\StopTaskBCN","no","mono","no","18","no","white","no","yes","768","psycho","32","32","C:/Users/user/Documents/GitHub/StopTaskBCN/subject-4.csv","psycho","Lentiform Loewenfeld","3.3.9","0","left","NA","right","left","NA","468.0036999998265","NA","11572.098099997675","468.0036999998265","NA","2","psycho","1024","2","48000","-16","experiment","","0","4","even","left","2","15029.506700000638","NA","85673.70830000073","85508.98940000116","NA","NA","NA","NA","NA","NA","85540.36469999846","15029.538200000388","3420.077800001309","NA","84673.74700000073","3456.5164000014192","85040.37790000075","86574.47780000075","84673.99870000008","NA","85040.32450000159","84623.4059999988","Stop-Signal Task","33","15435.410299996875","33","yes","1024"
"1","10","133","255","100","100","467.54871470586613","467.54871470586613","black","no","psycho","psycho","psycho","0","uniform","11582","472.2092000010889","0.04077095493015791","1","undefined","1","left","0","33","33","33","33","34","33","NA","33","0","33","0","0","0","33","0","33","33","33","NA","33","33","33","Tue Nov 30 16:08:29 2021","385","Loosely based on Logan (1984) Journal of Experimental Psychology: Human Perception and Performance","1","yes","StopSignalTask.osexp","C:\Users\user\Documents\GitHub\StopTaskBCN","no","mono","no","18","no","white","no","yes","768","psycho","33","33","C:/Users/user/Documents/GitHub/StopTaskBCN/subject-4.csv","psycho","Lentiform Loewenfeld","3.3.9","0","left","NA","right","left","NA","461.2460000025749","NA","11572.098099997675","461.2460000025749","NA","2","psycho","1024","2","48000","-16","experiment","","0","4","even","left","2","15029.506700000638","NA","87840.36840000044","87668.96289999931","NA","NA","NA","NA","NA","NA","87707.06169999903","15029.538200000388","3420.077800001309","NA","86790.37519999838","3456.5164000014192","87207.10509999844","88734.71540000173","86790.59069999857","NA","87207.04100000148","86742.34889999934","Stop-Signal Task","34","15896.65629999945","34","yes","1024"
"1","10","133","255","100","100","466.30215999996705","466.30215999996705","black","no","psycho","psycho","psycho","0","uniform","10681","439.2617999983486","0.041125531317137774","1","undefined","1","left","0","34","34","34","34","35","34","NA","34","0","34","0","0","0","34","0","34","34","34","NA","34","34","34","Tue Nov 30 16:08:29 2021","357","Loosely based on Logan (1984) Journal of Experimental Psychology: Human Perception and Performance","1","yes","StopSignalTask.osexp","C:\Users\user\Documents\GitHub\StopTaskBCN","no","mono","no","18","no","white","no","yes","768","psycho","34","34","C:/Users/user/Documents/GitHub/StopTaskBCN/subject-4.csv","psycho","Lentiform Loewenfeld","3.3.9","0","left","NA","right","left","NA","423.9192999993975","NA","11572.098099997675","423.9192999993975","NA","2","psycho","1024","2","48000","-16","experiment","","0","4","even","left","2","15029.506700000638","NA","89940.43270000111","89765.00719999967","NA","NA","NA","NA","NA","NA","89807.10810000164","15029.538200000388","3420.077800001309","NA","88940.38469999941","3456.5164000014192","89340.40879999884","90837.19460000066","88940.60549999995","NA","89340.35289999883","88895.69910000137","Stop-Signal Task","35","16320.575599998847","35","yes","1024"
"1","10","133","255","100","100","464.51250833332676","464.51250833332676","black","no","psycho","psycho","psycho","0","uniform","10058","418.20609999922453","0.04157944919459381","1","undefined","1","left","0","35","35","35","35","36","35","NA","35","0","35","0","0","0","35","0","35","35","35","NA","35","35","35","Tue Nov 30 16:08:29 2021","386","Loosely based on Logan (1984) Journal of Experimental Psychology: Human Perception and Performance","1","yes","StopSignalTask.osexp","C:\Users\user\Documents\GitHub\StopTaskBCN","no","mono","no","18","no","white","no","yes","768","psycho","35","35","C:/Users/user/Documents/GitHub/StopTaskBCN/subject-4.csv","psycho","Lentiform Loewenfeld","3.3.9","0","left","NA","right","left","NA","401.8747000009171","NA","11572.098099997675","401.8747000009171","NA","2","psycho","1024","2","48000","-16","experiment","","0","4","even","left","2","15029.506700000638","NA","92073.69749999998","91892.94769999833","NA","NA","NA","NA","NA","NA","91940.41500000094","15029.538200000388","3420.077800001309","NA","91073.74809999965","3456.5164000014192","91490.44030000005","92974.37250000075","91073.99280000027","NA","91490.37690000114","91030.4928000005","Stop-Signal Task","36","16722.450299999764","36","yes","1024"
"1","10","139","255","100","100","505.4557648648837","505.4557648648837","black","no","psycho","psycho","psycho","0","uniform","47521","2000.0594000011915","0.042087906399301184","1","undefined","1","None","0","36","36","36","36","37","36","NA","36","0","36","0","0","0","36","0","36","36","36","0","36","36","36","Tue Nov 30 16:08:29 2021","366","Loosely based on Logan (1984) Journal of Experimental Psychology: Human Perception and Performance","0","yes","StopSignalTask.osexp","C:\Users\user\Documents\GitHub\StopTaskBCN","no","mono","no","18","no","white","no","yes","768","psycho","36","36","C:/Users/user/Documents/GitHub/StopTaskBCN/subject-4.csv","psycho","Lentiform Loewenfeld","3.3.9","0","None","NA","right","None","NA","1979.4130000009318","NA","11572.098099997675","1979.4130000009318","NA","2","psycho","1024","2","48000","-16","experiment","50","8","4","even","right","9","15029.506700000638","NA","95723.73900000093","95570.9863000011","NA","NA","NA","NA","NA","NA","95590.41369999977","15029.538200000388","3420.077800001309","NA","93173.73600000064","3456.5164000014192","93590.60350000073","96614.73910000132","93173.80350000167","93673.7944000015","93590.39900000062","93137.31890000054","Stop-Signal Task","37","18701.863300000696","37","yes","1024"
"1","10","131","255","100","100","502.64204736844187","502.64204736844187","black","no","psycho","psycho","psycho","0","uniform","10112","414.13960000136285","0.040955261076084146","1","undefined","1","right","0","37","37","37","37","38","37","NA","37","0","37","0","0","0","37","0","37","37","37","0","37","37","37","Tue Nov 30 16:08:29 2021","302","Loosely based on Logan (1984) Journal of Experimental Psychology: Human Perception and Performance","0","yes","StopSignalTask.osexp","C:\Users\user\Documents\GitHub\StopTaskBCN","no","mono","no","18","no","white","no","yes","768","psycho","37","37","C:/Users/user/Documents/GitHub/StopTaskBCN/subject-4.csv","psycho","Lentiform Loewenfeld","3.3.9","0","right","NA","right","right","NA","398.53450000009616","NA","11572.098099997675","398.53450000009616","NA","2","psycho","1024","2","48000","-16","experiment","","0","4","even","right","8","15029.506700000638","NA","97740.46729999827","97572.96009999845","NA","NA","NA","NA","NA","NA","97607.08000000159","15029.538200000388","3420.077800001309","NA","96823.76880000083","3456.5164000014192","97173.77789999955","98645.75490000061","96823.98290000128","93673.7944000015","97173.72690000047","96779.11429999949","Stop-Signal Task","38","19100.397800000792","38","yes","1024"
"1","10","131","255","100","100","500.7192256411005","500.7192256411005","black","no","psycho","psycho","psycho","0","uniform","10723","447.22120000005816","0.041706723864595556","1","undefined","1","right","0","38","38","38","38","39","38","NA","38","0","38","0","0","0","38","0","38","38","38","0","38","38","38","Tue Nov 30 16:08:29 2021","335","Loosely based on Logan (1984) Journal of Experimental Psychology: Human Perception and Performance","0","yes","StopSignalTask.osexp","C:\Users\user\Documents\GitHub\StopTaskBCN","no","mono","no","18","no","white","no","yes","768","psycho","38","38","C:/Users/user/Documents/GitHub/StopTaskBCN/subject-4.csv","psycho","Lentiform Loewenfeld","3.3.9","0","right","NA","right","right","NA","427.65200000212644","NA","11572.098099997675","427.65200000212644","NA","2","psycho","1024","2","48000","-16","experiment","","0","4","even","right","8","15029.506700000638","NA","99840.41290000096","99668.94319999847","NA","NA","NA","NA","NA","NA","99707.18029999989","15029.538200000388","3420.077800001309","NA","98857.1179999999","3456.5164000014192","99240.63889999888","100744.75019999954","98857.33080000136","93673.7944000015","99240.43589999928","98814.81530000019","Stop-Signal Task","39","19528.04980000292","39","yes","1024"
"1","10","139","255","100","100","537.7255325000988","537.7255325000988","black","no","psycho","psycho","psycho","0","uniform","47913","2000.0381999998353","0.041743121908455645","1","undefined","1","None","0","39","39","39","39","40","39","NA","39","0","39","0","0","0","39","0","39","39","39","1","39","39","39","Tue Nov 30 16:08:29 2021","362","Loosely based on Logan (1984) Journal of Experimental Psychology: Human Perception and Performance","0","yes","StopSignalTask.osexp","C:\Users\user\Documents\GitHub\StopTaskBCN","no","mono","no","18","no","white","no","yes","768","psycho","39","39","C:/Users/user/Documents/GitHub/StopTaskBCN/subject-4.csv","psycho","Lentiform Loewenfeld","3.3.9","0","None","NA","right","None","NA","1980.9715000010328","NA","11572.098099997675","1980.9715000010328","NA","2","psycho","1024","2","48000","-16","experiment","50","8","4","even","right","9","15029.506700000638","NA","103507.10130000152","103355.36460000003","NA","NA","NA","NA","NA","NA","103373.80699999994","15029.538200000388","3420.077800001309","NA","100957.12229999845","3456.5164000014192","101373.98069999836","104400.76580000095","100957.19010000175","101457.17140000124","101373.77500000002","100916.81990000143","Stop-Signal Task","40","21509.02130000395","40","yes","1024"
"1","10","133","255","100","100","534.4911804879702","534.4911804879702","black","no","psycho","psycho","psycho","0","uniform","10309","421.19580000144197","0.0408570957417249","1","undefined","1","left","0","40","40","40","40","41","40","NA","40","0","40","0","0","0","40","0","40","40","40","1","40","40","40","Tue Nov 30 16:08:29 2021","325","Loosely based on Logan (1984) Journal of Experimental Psychology: Human Perception and Performance","1","yes","StopSignalTask.osexp","C:\Users\user\Documents\GitHub\StopTaskBCN","no","mono","no","18","no","white","no","yes","768","psycho","40","40","C:/Users/user/Documents/GitHub/StopTaskBCN/subject-4.csv","psycho","Lentiform Loewenfeld","3.3.9","0","left","NA","right","left","NA","405.1171000028262","NA","11572.098099997675","405.1171000028262","NA","2","psycho","1024","2","48000","-16","experiment","","0","4","even","left","2","15029.506700000638","NA","105590.46730000045","105412.96639999928","NA","NA","NA","NA","NA","NA","105457.10619999954","15029.538200000388","3420.077800001309","NA","104640.47650000066","3456.5164000014192","105007.18399999823","106483.75419999866","104640.69540000128","101457.17140000124","105007.1253999995","104588.50729999904","Stop-Signal Task","41","21914.138400006777","41","yes","1024"
"1","10","131","255","100","100","532.439302381092","532.439302381092","black","no","psycho","psycho","psycho","0","uniform","11126","467.2861999970337","0.04199947869827734","1","undefined","1","right","0","41","41","41","41","42","41","NA","41","0","41","0","0","0","41","0","41","41","41","1","41","41","41","Tue Nov 30 16:08:29 2021","383","Loosely based on Logan (1984) Journal of Experimental Psychology: Human Perception and Performance","0","yes","StopSignalTask.osexp","C:\Users\user\Documents\GitHub\StopTaskBCN","no","mono","no","18","no","white","no","yes","768","psycho","41","41","C:/Users/user/Documents/GitHub/StopTaskBCN/subject-4.csv","psycho","Lentiform Loewenfeld","3.3.9","0","right","NA","right","right","NA","448.3122999990883","NA","11572.098099997675","448.3122999990883","NA","2","psycho","1024","2","48000","-16","experiment","","0","4","even","right","8","15029.506700000638","NA","107757.18620000043","107572.96639999913","NA","NA","NA","NA","NA","NA","107623.87030000173","15029.538200000388","3420.077800001309","NA","106690.69310000123","3456.5164000014192","107124.01220000174","108655.47950000109","106690.91320000007","101457.17140000124","107123.80249999842","106644.67560000048","Stop-Signal Task","42","22362.450700005866","42","yes","1024"
"1","10","131","255","100","100","529.602195348944","529.602195348944","black","no","psycho","psycho","psycho","0","uniform","10405","423.3009999989008","0.04068246035549263","1","undefined","1","right","0","42","42","42","42","43","42","NA","42","0","42","0","0","0","42","0","42","42","42","1","42","42","42","Tue Nov 30 16:08:29 2021","347","Loosely based on Logan (1984) Journal of Experimental Psychology: Human Perception and Performance","0","yes","StopSignalTask.osexp","C:\Users\user\Documents\GitHub\StopTaskBCN","no","mono","no","18","no","white","no","yes","768","psycho","42","42","C:/Users/user/Documents/GitHub/StopTaskBCN/subject-4.csv","psycho","Lentiform Loewenfeld","3.3.9","0","right","NA","right","right","NA","410.4436999987229","NA","11572.098099997675","410.4436999987229","NA","2","psycho","1024","2","48000","-16","experiment","","0","4","even","right","8","15029.506700000638","NA","109857.13599999872","109684.98109999928","NA","NA","NA","NA","NA","NA","109723.94939999867","15029.538200000388","3420.077800001309","NA","108890.54780000151","3456.5164000014192","109273.87129999988","110754.4326999996","108890.8287000013","101457.17140000124","109273.81410000089","108837.49819999866","Stop-Signal Task","43","22772.89440000459","43","yes","1024"
"1","10","133","255","100","100","527.191013636432","527.191013636432","black","no","psycho","psycho","psycho","0","uniform","10541","450.255499999912","0.04271468551370003","1","undefined","1","left","0","43","43","43","43","44","43","NA","43","0","43","0","0","0","43","0","43","43","43","1","43","43","43","Tue Nov 30 16:08:29 2021","314","Loosely based on Logan (1984) Journal of Experimental Psychology: Human Perception and Performance","1","yes","StopSignalTask.osexp","C:\Users\user\Documents\GitHub\StopTaskBCN","no","mono","no","18","no","white","no","yes","768","psycho","43","43","C:/Users/user/Documents/GitHub/StopTaskBCN/subject-4.csv","psycho","Lentiform Loewenfeld","3.3.9","0","left","NA","right","left","NA","423.5101999984181","NA","11572.098099997675","423.5101999984181","NA","2","psycho","1024","2","48000","-16","experiment","","0","4","even","left","2","15029.506700000638","NA","111940.48330000078","111764.92810000127","NA","NA","NA","NA","NA","NA","111807.48229999881","15029.538200000388","3420.077800001309","NA","110973.84049999891","3456.5164000014192","111340.73820000049","112833.93559999968","110974.05699999945","101457.17140000124","111340.51829999953","110925.51390000153","Stop-Signal Task","44","23196.404600003007","44","yes","1024"
"1","10","131","255","100","100","523.3477088889534","523.3477088889534","black","no","psycho","psycho","psycho","0","uniform","8970","374.2984000018623","0.041727803790620105","1","undefined","1","right","0","44","44","44","44","45","44","NA","44","0","44","0","0","0","44","0","44","44","44","1","44","44","44","Tue Nov 30 16:08:29 2021","367","Loosely based on Logan (1984) Journal of Experimental Psychology: Human Perception and Performance","0","yes","StopSignalTask.osexp","C:\Users\user\Documents\GitHub\StopTaskBCN","no","mono","no","18","no","white","no","yes","768","psycho","44","44","C:/Users/user/Documents/GitHub/StopTaskBCN/subject-4.csv","psycho","Lentiform Loewenfeld","3.3.9","0","right","NA","right","right","NA","354.2422999998962","NA","11572.098099997675","354.2422999998962","NA","2","psycho","1024","2","48000","-16","experiment","","0","4","even","right","8","15029.506700000638","NA","114007.1844999984","113828.96120000078","NA","NA","NA","NA","NA","NA","113873.99279999954","15029.538200000388","3420.077800001309","NA","113057.20139999903","3456.5164000014192","113474.03969999868","114896.09040000141","113057.27399999887","101457.17140000124","113473.83080000145","113018.67839999977","Stop-Signal Task","45","23550.646900002903","45","yes","1024"
"1","10","131","255","100","100","521.7136543479169","521.7136543479169","black","no","psycho","psycho","psycho","0","uniform","11229","471.28909999810276","0.041970709769178265","1","undefined","1","right","0","45","45","45","45","46","45","NA","45","0","45","0","0","0","45","0","45","45","45","1","45","45","45","Tue Nov 30 16:08:29 2021","326","Loosely based on Logan (1984) Journal of Experimental Psychology: Human Perception and Performance","0","yes","StopSignalTask.osexp","C:\Users\user\Documents\GitHub\StopTaskBCN","no","mono","no","18","no","white","no","yes","768","psycho","45","45","C:/Users/user/Documents/GitHub/StopTaskBCN/subject-4.csv","psycho","Lentiform Loewenfeld","3.3.9","0","right","NA","right","right","NA","448.1812000012724","NA","11572.098099997675","448.1812000012724","NA","2","psycho","1024","2","48000","-16","experiment","","0","4","even","right","8","15029.506700000638","NA","116140.55139999982","115972.93189999982","NA","NA","NA","NA","NA","NA","116007.22569999925","15029.538200000388","3420.077800001309","NA","115140.55440000084","3456.5164000014192","115524.07849999872","117035.50080000059","115140.81839999926","101457.17140000124","115523.87290000115","115093.74620000017","Stop-Signal Task","46","23998.828100004175","46","yes","1024"
"1","10","131","255","100","100","519.9920297873564","519.9920297873564","black","no","psycho","psycho","psycho","0","uniform","10924","460.25809999991907","0.04213274441595744","1","undefined","1","right","0","46","46","46","46","47","46","NA","46","0","46","0","0","0","46","0","46","46","46","1","46","46","46","Tue Nov 30 16:08:29 2021","393","Loosely based on Logan (1984) Journal of Experimental Psychology: Human Perception and Performance","0","yes","StopSignalTask.osexp","C:\Users\user\Documents\GitHub\StopTaskBCN","no","mono","no","18","no","white","no","yes","768","psycho","46","46","C:/Users/user/Documents/GitHub/StopTaskBCN/subject-4.csv","psycho","Lentiform Loewenfeld","3.3.9","0","right","NA","right","right","NA","440.79730000157724","NA","11572.098099997675","440.79730000157724","NA","2","psycho","1024","2","48000","-16","experiment","","0","4","even","right","8","15029.506700000638","NA","118323.8867","118148.94669999921","NA","NA","NA","NA","NA","NA","118190.54730000062","15029.538200000388","3420.077800001309","NA","117257.26759999816","3456.5164000014192","117707.41149999958","119222.78169999845","117257.35110000096","101457.17140000124","117707.2096999982","117221.71059999891","Stop-Signal Task","47","24439.625400005752","47","yes","1024"
"1","10","133","255","100","100","519.2068479167725","519.2068479167725","black","no","psycho","psycho","psycho","0","uniform","12108","495.31260000003385","0.04090787908820894","1","undefined","1","left","0","47","47","47","47","48","47","NA","47","0","47","0","0","0","47","0","47","47","47","1","47","47","47","Tue Nov 30 16:08:29 2021","373","Loosely based on Logan (1984) Journal of Experimental Psychology: Human Perception and Performance","1","yes","StopSignalTask.osexp","C:\Users\user\Documents\GitHub\StopTaskBCN","no","mono","no","18","no","white","no","yes","768","psycho","47","47","C:/Users/user/Documents/GitHub/StopTaskBCN/subject-4.csv","psycho","Lentiform Loewenfeld","3.3.9","0","left","NA","right","left","NA","482.3032999993302","NA","11572.098099997675","482.3032999993302","NA","2","psycho","1024","2","48000","-16","experiment","","0","4","even","left","2","15029.506700000638","NA","120523.90369999921","120356.9451000003","NA","NA","NA","NA","NA","NA","120390.53520000016","15029.538200000388","3420.077800001309","NA","119457.22739999837","3456.5164000014192","119873.95280000055","121435.13449999955","119457.44320000085","101457.17140000124","119873.89769999936","119410.4527999989","Stop-Signal Task","48","24921.928700005083","48","yes","1024"
"1","10","141","255","100","100","549.2031959184548","549.2031959184548","black","no","psycho","psycho","psycho","0","uniform","48618","2000.0156999994942","0.04113735036405229","1","undefined","1","None","0","48","48","48","48","49","48","NA","48","0","48","0","0","0","48","0","48","48","48","2","48","48","48","Tue Nov 30 16:08:29 2021","339","Loosely based on Logan (1984) Journal of Experimental Psychology: Human Perception and Performance","1","yes","StopSignalTask.osexp","C:\Users\user\Documents\GitHub\StopTaskBCN","no","mono","no","18","no","white","no","yes","768","psycho","48","48","C:/Users/user/Documents/GitHub/StopTaskBCN/subject-4.csv","psycho","Lentiform Loewenfeld","3.3.9","0","None","NA","right","None","NA","1989.0278999992006","NA","11572.098099997675","1989.0278999992006","NA","2","psycho","1024","2","48000","-16","experiment","50","8","4","even","left","3","15029.506700000638","NA","124173.91489999864","124030.34829999888","NA","NA","NA","NA","NA","NA","124040.57359999933","15029.538200000388","3420.077800001309","NA","121657.33800000089","3456.5164000014192","122040.86000000098","125085.09829999821","121657.46919999947","122107.20489999949","122040.70850000062","121616.33250000159","Stop-Signal Task","49","26910.956600004283","49","yes","1024"
"1","10","138","255","98","98","547.6643260000856","547.6643260000856","black","no","psycho","psycho","psycho","0","uniform","8926","484.0729999996256","0.05423179475684804","0","undefined","0","None","0","49","49","49","49","50","49","NA","49","0","49","0","0","0","49","0","49","49","49","3","49","49","49","Tue Nov 30 16:08:29 2021","363","Loosely based on Logan (1984) Journal of Experimental Psychology: Human Perception and Performance","0","yes","StopSignalTask.osexp","C:\Users\user\Documents\GitHub\StopTaskBCN","no","mono","no","18","no","white","no","yes","768","psycho","49","49","C:/Users/user/Documents/GitHub/StopTaskBCN/subject-4.csv","psycho","Lentiform Loewenfeld","3.3.9","0","right","NA","right","right","NA","472.25969999999506","NA","11572.098099997675","472.25969999999506","NA","2","psycho","1024","2","48000","-16","experiment","100","8","4","even","right","10","15029.506700000638","126373.92919999911","124173.91489999864","126196.90990000163","NA","NA","NA","NA","NA","NA","126240.77340000076","15029.538200000388","3420.077800001309","NA","125307.27979999938","3456.5164000014192","125723.95229999893","127271.08210000006","125307.5213000011","125840.59229999912","125723.89869999824","125261.97889999821","Stop-Signal Task","49","27383.21630000428","50","yes","1024"
"1","10","139","255","98.03921568627452","98.03921568627452","575.7672843137698","575.7672843137698","black","no","psycho","psycho","psycho","0","uniform","48220","2000.018500002625","0.041476949398644235","1","undefined","1","None","0","50","50","50","50","51","50","NA","50","0","50","0","0","0","50","0","50","50","50","4","50","50","50","Tue Nov 30 16:08:29 2021","306","Loosely based on Logan (1984) Journal of Experimental Psychology: Human Perception and Performance","0","yes","StopSignalTask.osexp","C:\Users\user\Documents\GitHub\StopTaskBCN","no","mono","no","18","no","white","no","yes","768","psycho","50","50","C:/Users/user/Documents/GitHub/StopTaskBCN/subject-4.csv","psycho","Lentiform Loewenfeld","3.3.9","0","None","NA","right","None","NA","1980.9151999979804","NA","11572.098099997675","1980.9151999979804","NA","2","psycho","1024","2","48000","-16","experiment","50","8","4","even","right","9","15029.506700000638","126373.92919999911","129990.59510000006","129838.85309999823","NA","NA","NA","NA","NA","NA","129857.28780000136","15029.538200000388","3420.077800001309","NA","127507.39740000063","3456.5164000014192","127857.46460000155","130883.45699999991","127507.7773999983","127923.92059999838","127857.2634000011","127455.65039999929","Stop-Signal Task","50","29364.13150000226","51","yes","1024"
"1","10","133","255","98.07692307692308","98.07692307692308","571.8266230770286","571.8266230770286","black","no","psycho","psycho","psycho","0","uniform","9407","386.20480000099633","0.04105504411618968","1","undefined","1","left","0","51","51","51","51","52","51","NA","51","0","51","0","0","0","51","0","51","51","51","4","51","51","51","Tue Nov 30 16:08:29 2021","300","Loosely based on Logan (1984) Journal of Experimental Psychology: Human Perception and Performance","1","yes","StopSignalTask.osexp","C:\Users\user\Documents\GitHub\StopTaskBCN","no","mono","no","18","no","white","no","yes","768","psycho","51","51","C:/Users/user/Documents/GitHub/StopTaskBCN/subject-4.csv","psycho","Lentiform Loewenfeld","3.3.9","0","left","NA","right","left","NA","370.85290000322857","NA","11572.098099997675","370.85290000322857","NA","2","psycho","1024","2","48000","-16","experiment","","0","4","even","left","2","15029.506700000638","126373.92919999911","132007.29320000028","131828.8958000012","NA","NA","NA","NA","NA","NA","131873.95249999827","15029.538200000388","3420.077800001309","NA","131107.29490000085","3456.5164000014192","131457.31719999822","132897.32000000004","131107.3632000007","127923.92059999838","131457.26250000007","131070.73170000149","Stop-Signal Task","51","29734.984400005487","52","yes","1024"
"1","10","141","255","98.11320754716981","98.11320754716981","598.5497886793142","598.5497886793142","black","no","psycho","psycho","psycho","0","uniform","47145","2000.01390000034","0.04242260897232665","1","undefined","1","None","0","52","52","52","52","53","52","NA","52","0","52","0","0","0","52","0","52","52","52","5","52","52","52","Tue Nov 30 16:08:29 2021","328","Loosely based on Logan (1984) Journal of Experimental Psychology: Human Perception and Performance","1","yes","StopSignalTask.osexp","C:\Users\user\Documents\GitHub\StopTaskBCN","no","mono","no","18","no","white","no","yes","768","psycho","52","52","C:/Users/user/Documents/GitHub/StopTaskBCN/subject-4.csv","psycho","Lentiform Loewenfeld","3.3.9","0","None","NA","right","None","NA","1988.154399998166","NA","11572.098099997675","1988.154399998166","NA","2","psycho","1024","2","48000","-16","experiment","100","8","4","even","left","4","15029.506700000638","126373.92919999911","135623.97760000022","135479.32020000007","NA","NA","NA","NA","NA","NA","135490.62630000117","15029.538200000388","3420.077800001309","NA","133107.32310000094","3456.5164000014192","133490.67650000143","136524.365199999","133107.5392999992","133607.28390000077","133490.6168000016","133058.036800001","Stop-Signal Task","52","31723.138800003653","53","yes","1024"
"1","10","131","255","98.14814814814815","98.14814814814815","593.9490537037744","593.9490537037744","black","no","psycho","psycho","psycho","0","uniform","8301","363.221200001135","0.04375631851597819","1","undefined","1","right","0","53","53","53","53","54","53","NA","53","0","53","0","0","0","53","0","53","53","53","5","53","53","53","Tue Nov 30 16:08:29 2021","377","Loosely based on Logan (1984) Journal of Experimental Psychology: Human Perception and Performance","0","yes","StopSignalTask.osexp","C:\Users\user\Documents\GitHub\StopTaskBCN","no","mono","no","18","no","white","no","yes","768","psycho","53","53","C:/Users/user/Documents/GitHub/StopTaskBCN/subject-4.csv","psycho","Lentiform Loewenfeld","3.3.9","0","right","NA","right","right","NA","350.1101000001654","NA","11572.098099997675","350.1101000001654","NA","2","psycho","1024","2","48000","-16","experiment","","0","4","even","right","8","15029.506700000638","126373.92919999911","137690.65580000097","137524.88200000153","NA","NA","NA","NA","NA","NA","137557.31730000116","15029.538200000388","3420.077800001309","NA","136757.325999999","3456.5164000014192","137174.03600000034","138595.00079999998","136757.5642999982","133607.28390000077","137173.97749999873","136714.0698000003","Stop-Signal Task","53","32073.24890000382","54","yes","1024"
"1","10","133","255","98.18181818181819","98.18181818181819","591.8039400000866","591.8039400000866","black","no","psycho","psycho","psycho","0","uniform","11733","499.32059999991907","0.04255694195857147","1","undefined","1","left","0","54","54","54","54","55","54","NA","54","0","54","0","0","0","54","0","54","54","54","5","54","54","54","Tue Nov 30 16:08:29 2021","366","Loosely based on Logan (1984) Journal of Experimental Psychology: Human Perception and Performance","1","yes","StopSignalTask.osexp","C:\Users\user\Documents\GitHub\StopTaskBCN","no","mono","no","18","no","white","no","yes","768","psycho","54","54","C:/Users/user/Documents/GitHub/StopTaskBCN/subject-4.csv","psycho","Lentiform Loewenfeld","3.3.9","0","left","NA","right","left","NA","475.9678000009444","NA","11572.098099997675","475.9678000009444","NA","2","psycho","1024","2","48000","-16","experiment","","0","4","even","left","2","15029.506700000638","126373.92919999911","139873.97910000072","139700.91010000033","NA","NA","NA","NA","NA","NA","139740.69619999864","15029.538200000388","3420.077800001309","NA","138807.3407999982","3456.5164000014192","139224.22340000048","140775.00789999976","138807.55829999907","133607.28390000077","139224.0180000008","138762.19889999993","Stop-Signal Task","54","32549.216700004763","55","yes","1024"
"1","10","133","255","98.21428571428571","98.21428571428571","588.7580321429725","588.7580321429725","black","no","psycho","psycho","psycho","0","uniform","10614","446.3267999999516","0.0420507631430141","1","undefined","1","left","0","55","55","55","55","56","55","NA","55","0","55","0","0","0","55","0","55","55","55","5","55","55","55","Tue Nov 30 16:08:29 2021","339","Loosely based on Logan (1984) Journal of Experimental Psychology: Human Perception and Performance","1","yes","StopSignalTask.osexp","C:\Users\user\Documents\GitHub\StopTaskBCN","no","mono","no","18","no","white","no","yes","768","psycho","55","55","C:/Users/user/Documents/GitHub/StopTaskBCN/subject-4.csv","psycho","Lentiform Loewenfeld","3.3.9","0","left","NA","right","left","NA","421.2331000017002","NA","11572.098099997675","421.2331000017002","NA","2","psycho","1024","2","48000","-16","experiment","","0","4","even","left","2","15029.506700000638","126373.92919999911","142007.35500000155","141812.8914000008","NA","NA","NA","NA","NA","NA","141857.44540000087","15029.538200000388","3420.077800001309","NA","141007.36680000045","3456.5164000014192","141390.9038999991","142900.81210000062","141007.44080000004","133607.28390000077","141390.69419999942","140968.58050000083","Stop-Signal Task","55","32970.44980000646","56","yes","1024"
"1","10","131","255","98.24561403508773","98.24561403508773","586.2757228071706","586.2757228071706","black","no","psycho","psycho","psycho","0","uniform","11252","466.3327999987814","0.04144443654450599","1","undefined","1","right","0","56","56","56","56","57","56","NA","56","0","56","0","0","0","56","0","56","56","56","5","56","56","56","Tue Nov 30 16:08:29 2021","376","Loosely based on Logan (1984) Journal of Experimental Psychology: Human Perception and Performance","0","yes","StopSignalTask.osexp","C:\Users\user\Documents\GitHub\StopTaskBCN","no","mono","no","18","no","white","no","yes","768","psycho","56","56","C:/Users/user/Documents/GitHub/StopTaskBCN/subject-4.csv","psycho","Lentiform Loewenfeld","3.3.9","0","right","NA","right","right","NA","447.26640000226325","NA","11572.098099997675","447.26640000226325","NA","2","psycho","1024","2","48000","-16","experiment","","0","4","even","right","8","15029.506700000638","126373.92919999911","144157.36280000056","143988.89280000003","NA","NA","NA","NA","NA","NA","144024.02839999922","15029.538200000388","3420.077800001309","NA","143107.3705000017","3456.5164000014192","143540.87889999937","145066.40509999852","143107.58480000004","133607.28390000077","143540.67639999994","143063.19000000076","Stop-Signal Task","56","33417.71620000873","57","yes","1024"
"1","10","133","255","98.27586206896552","98.27586206896552","583.774975862227","583.774975862227","black","no","psycho","psycho","psycho","0","uniform","11113","460.48249999876134","0.04143638081514994","1","undefined","1","left","0","57","57","57","57","58","57","NA","57","0","57","0","0","0","57","0","57","57","57","5","57","57","57","Tue Nov 30 16:08:29 2021","368","Loosely based on Logan (1984) Journal of Experimental Psychology: Human Perception and Performance","1","yes","StopSignalTask.osexp","C:\Users\user\Documents\GitHub\StopTaskBCN","no","mono","no","18","no","white","no","yes","768","psycho","57","57","C:/Users/user/Documents/GitHub/StopTaskBCN/subject-4.csv","psycho","Lentiform Loewenfeld","3.3.9","0","left","NA","right","left","NA","441.2324000004446","NA","11572.098099997675","441.2324000004446","NA","2","psycho","1024","2","48000","-16","experiment","","0","4","even","left","2","15029.506700000638","126373.92919999911","146307.3732999983","146133.03889999952","NA","NA","NA","NA","NA","NA","146174.04850000094","15029.538200000388","3420.077800001309","NA","145274.06279999923","3456.5164000014192","145690.91800000024","147207.51350000137","145274.28230000078","133607.28390000077","145690.70419999844","145227.33320000043","Stop-Signal Task","57","33858.94860000917","58","yes","1024"
"1","10","131","255","98.30508474576271","98.30508474576271","580.2279508475834","580.2279508475834","black","no","psycho","psycho","psycho","0","uniform","9231","394.90850000220235","0.04278068464978901","1","undefined","1","right","0","58","58","58","58","59","58","NA","58","0","58","0","0","0","58","0","58","58","58","5","58","58","58","Tue Nov 30 16:08:29 2021","302","Loosely based on Logan (1984) Journal of Experimental Psychology: Human Perception and Performance","0","yes","StopSignalTask.osexp","C:\Users\user\Documents\GitHub\StopTaskBCN","no","mono","no","18","no","white","no","yes","768","psycho","58","58","C:/Users/user/Documents/GitHub/StopTaskBCN/subject-4.csv","psycho","Lentiform Loewenfeld","3.3.9","0","right","NA","right","right","NA","374.5004999982484","NA","11572.098099997675","374.5004999982484","NA","2","psycho","1024","2","48000","-16","experiment","","0","4","even","right","8","15029.506700000638","126373.92919999911","148307.39620000168","148132.90110000162","NA","NA","NA","NA","NA","NA","148174.05919999874","15029.538200000388","3420.077800001309","NA","147407.3931999992","3456.5164000014192","147757.64730000083","149202.28169999973","147407.46239999862","133607.28390000077","147757.4229999991","147370.63580000176","Stop-Signal Task","58","34233.44910000742","59","yes","1024"
"1","10","133","255","98.33333333333333","98.33333333333333","580.5013583334585","580.5013583334585","black","no","psycho","psycho","psycho","0","uniform","14889","611.3502000007429","0.04106052790655806","1","undefined","1","left","0","59","59","59","59","60","59","NA","59","0","59","0","0","0","59","0","59","59","59","5","59","59","59","Tue Nov 30 16:08:29 2021","360","Loosely based on Logan (1984) Journal of Experimental Psychology: Human Perception and Performance","1","yes","StopSignalTask.osexp","C:\Users\user\Documents\GitHub\StopTaskBCN","no","mono","no","18","no","white","no","yes","768","psycho","59","59","C:/Users/user/Documents/GitHub/StopTaskBCN/subject-4.csv","psycho","Lentiform Loewenfeld","3.3.9","0","left","NA","right","left","NA","596.6324000000895","NA","11572.098099997675","596.6324000000895","NA","2","psycho","1024","2","48000","-16","experiment","","0","4","even","left","2","15029.506700000638","126373.92919999911","150574.04509999833","150404.86040000178","NA","NA","NA","NA","NA","NA","150440.72809999852","15029.538200000388","3420.077800001309","NA","149407.41790000175","3456.5164000014192","149807.45580000075","151468.27580000172","149407.64180000042","133607.28390000077","149807.40140000125","149364.50210000112","Stop-Signal Task","59","34830.08150000751","60","yes","1024"
"1","10","133","255","98.36065573770492","98.36065573770492","579.0399459017594","579.0399459017594","black","no","psycho","psycho","psycho","0","uniform","12327","503.3761999984563","0.04083525594211538","1","undefined","1","left","0","60","60","60","60","61","60","NA","60","0","60","0","0","0","60","0","60","60","60","5","60","60","60","Tue Nov 30 16:08:29 2021","312","Loosely based on Logan (1984) Journal of Experimental Psychology: Human Perception and Performance","1","yes","StopSignalTask.osexp","C:\Users\user\Documents\GitHub\StopTaskBCN","no","mono","no","18","no","white","no","yes","768","psycho","60","60","C:/Users/user/Documents/GitHub/StopTaskBCN/subject-4.csv","psycho","Lentiform Loewenfeld","3.3.9","0","left","NA","right","left","NA","491.35519999981625","NA","11572.098099997675","491.35519999981625","NA","2","psycho","1024","2","48000","-16","experiment","","0","4","even","left","2","15029.506700000638","126373.92919999911","152707.41120000093","152532.8942999986","NA","NA","NA","NA","NA","NA","152574.0908000007","15029.538200000388","3420.077800001309","NA","151690.80119999853","3456.5164000014192","152040.7763000003","153613.35099999997","151690.88669999837","133607.28390000077","152040.72000000087","151650.65139999933","Stop-Signal Task","60","35321.436700007325","61","yes","1024"
"1","10","131","255","98.38709677419355","98.38709677419355","577.0093951614399","577.0093951614399","black","no","psycho","psycho","psycho","0","uniform","11148","472.34240000034333","0.04237014711162032","1","undefined","1","right","0","61","61","61","61","62","61","NA","61","0","61","0","0","0","61","0","61","61","61","5","61","61","61","Tue Nov 30 16:08:29 2021","312","Loosely based on Logan (1984) Journal of Experimental Psychology: Human Perception and Performance","0","yes","StopSignalTask.osexp","C:\Users\user\Documents\GitHub\StopTaskBCN","no","mono","no","18","no","white","no","yes","768","psycho","61","61","C:/Users/user/Documents/GitHub/StopTaskBCN/subject-4.csv","psycho","Lentiform Loewenfeld","3.3.9","0","right","NA","right","right","NA","453.1458000019484","NA","11572.098099997675","453.1458000019484","NA","2","psycho","1024","2","48000","-16","experiment","","0","4","even","right","8","15029.506700000638","126373.92919999911","154840.81290000177","154644.85250000143","NA","NA","NA","NA","NA","NA","154690.79989999955","15029.538200000388","3420.077800001309","NA","153824.1906000003","3456.5164000014192","154190.9315999983","155749.95620000118","153824.41800000015","133607.28390000077","154190.73410000055","153773.1038999991","Stop-Signal Task","61","35774.582500009274","62","yes","1024"
"1","10","133","255","98.41269841269842","98.41269841269842","574.6512000001703","574.6512000001703","black","no","psycho","psycho","psycho","0","uniform","10664","446.3391999997839","0.04185476369090246","1","undefined","1","left","0","62","62","62","62","63","62","NA","62","0","62","0","0","0","62","0","62","62","62","5","62","62","62","Tue Nov 30 16:08:29 2021","393","Loosely based on Logan (1984) Journal of Experimental Psychology: Human Perception and Performance","1","yes","StopSignalTask.osexp","C:\Users\user\Documents\GitHub\StopTaskBCN","no","mono","no","18","no","white","no","yes","768","psycho","62","62","C:/Users/user/Documents/GitHub/StopTaskBCN/subject-4.csv","psycho","Lentiform Loewenfeld","3.3.9","0","left","NA","right","left","NA","428.44310000145924","NA","11572.098099997675","428.44310000145924","NA","2","psycho","1024","2","48000","-16","experiment","","0","4","even","left","2","15029.506700000638","126373.92919999911","157024.20949999942","156836.83949999977","NA","NA","NA","NA","NA","NA","156874.1145999993","15029.538200000388","3420.077800001309","NA","155957.45080000052","3456.5164000014192","156407.62489999906","157924.8641000013","155957.5205000001","133607.28390000077","156407.41659999912","155923.39400000128","Stop-Signal Task","62","36203.02560001073","63","yes","1024"
"1","10","131","255","98.4375","98.4375","572.0335203126865","572.0335203126865","black","no","psycho","psycho","psycho","0","uniform","10167","433.37960000280873","0.04262610406243816","1","undefined","1","right","0","63","63","63","63","64","63","NA","63","0","63","0","0","0","63","0","63","63","63","5","63","63","63","Tue Nov 30 16:08:29 2021","364","Loosely based on Logan (1984) Journal of Experimental Psychology: Human Perception and Performance","0","yes","StopSignalTask.osexp","C:\Users\user\Documents\GitHub\StopTaskBCN","no","mono","no","18","no","white","no","yes","768","psycho","63","63","C:/Users/user/Documents/GitHub/StopTaskBCN/subject-4.csv","psycho","Lentiform Loewenfeld","3.3.9","0","right","NA","right","right","NA","407.11970000120346","NA","11572.098099997675","407.11970000120346","NA","2","psycho","1024","2","48000","-16","experiment","","0","4","even","right","8","15029.506700000638","126373.92919999911","159124.1254000015","158948.8835000011","NA","NA","NA","NA","NA","NA","158990.75660000017","15029.538200000388","3420.077800001309","NA","158124.13229999947","3456.5164000014192","158540.98499999964","160025.90079999936","158124.20159999965","133607.28390000077","158540.77909999978","158085.5018000002","Stop-Signal Task","63","36610.145300011936","64","yes","1024"
"1","10","131","255","98.46153846153847","98.46153846153847","572.3667430770897","572.3667430770897","black","no","psycho","psycho","psycho","0","uniform","14779","619.132300002093","0.04189270586657372","1","undefined","1","right","0","64","64","64","64","65","64","NA","64","0","64","0","0","0","64","0","64","64","64","5","64","64","64","Tue Nov 30 16:08:29 2021","399","Loosely based on Logan (1984) Journal of Experimental Psychology: Human Perception and Performance","0","yes","StopSignalTask.osexp","C:\Users\user\Documents\GitHub\StopTaskBCN","no","mono","no","18","no","white","no","yes","768","psycho","64","64","C:/Users/user/Documents/GitHub/StopTaskBCN/subject-4.csv","psycho","Lentiform Loewenfeld","3.3.9","0","right","NA","right","right","NA","593.6929999988934","NA","11572.098099997675","593.6929999988934","NA","2","psycho","1024","2","48000","-16","experiment","","0","4","even","right","8","15029.506700000638","126373.92919999911","161440.92910000109","161268.84939999945","NA","NA","NA","NA","NA","NA","161307.46419999923","15029.538200000388","3420.077800001309","NA","160224.13360000064","3456.5164000014192","160674.35670000123","162349.44769999856","160224.20369999963","133607.28390000077","160674.1441000013","160187.69039999825","Stop-Signal Task","64","37203.83830001083","65","yes","1024"
"1","10","141","255","98.48484848484848","98.48484848484848","593.7888393940684","593.7888393940684","black","no","psycho","psycho","psycho","0","uniform","47291","2000.0263000001723","0.042291901207421545","1","undefined","1","None","0","65","65","65","65","66","65","NA","65","0","65","0","0","0","65","0","65","65","65","6","65","65","65","Tue Nov 30 16:08:29 2021","380","Loosely based on Logan (1984) Journal of Experimental Psychology: Human Perception and Performance","1","yes","StopSignalTask.osexp","C:\Users\user\Documents\GitHub\StopTaskBCN","no","mono","no","18","no","white","no","yes","768","psycho","65","65","C:/Users/user/Documents/GitHub/StopTaskBCN/subject-4.csv","psycho","Lentiform Loewenfeld","3.3.9","0","None","NA","right","None","NA","1986.2250999976823","NA","11572.098099997675","1986.2250999976823","NA","2","psycho","1024","2","48000","-16","experiment","100","8","4","even","left","4","15029.506700000638","126373.92919999911","165140.81739999892","164994.32499999966","NA","NA","NA","NA","NA","NA","165007.50880000123","15029.538200000388","3420.077800001309","NA","162574.17500000156","3456.5164000014192","163007.54510000115","166041.95229999823","162574.2438999987","163124.14780000108","163007.47970000157","162534.18030000103","Stop-Signal Task","65","39190.06340000851","66","yes","1024"
"1","10","133","255","98.50746268656717","98.50746268656717","595.021262686687","595.021262686687","black","no","psycho","psycho","psycho","0","uniform","16945","699.303700002929","0.04126902921232983","1","undefined","1","left","0","66","66","66","66","67","66","NA","66","0","66","0","0","0","66","0","66","66","66","6","66","66","66","Tue Nov 30 16:08:29 2021","306","Loosely based on Logan (1984) Journal of Experimental Psychology: Human Perception and Performance","1","yes","StopSignalTask.osexp","C:\Users\user\Documents\GitHub\StopTaskBCN","no","mono","no","18","no","white","no","yes","768","psycho","66","66","C:/Users/user/Documents/GitHub/StopTaskBCN/subject-4.csv","psycho","Lentiform Loewenfeld","3.3.9","0","left","NA","right","left","NA","676.3611999995192","NA","11572.098099997675","676.3611999995192","NA","2","psycho","1024","2","48000","-16","experiment","","0","4","even","left","2","15029.506700000638","126373.92919999911","167457.4966","167284.84949999984","NA","NA","NA","NA","NA","NA","167324.24589999937","15029.538200000388","3420.077800001309","NA","166257.5192000004","3456.5164000014192","166607.6768999992","168353.59439999957","166257.59150000158","163124.14780000108","166607.46890000155","166218.1683000017","Stop-Signal Task","66","39866.42460000803","67","yes","1024"
"1","10","133","255","98.52941176470588","98.52941176470588","596.4837102942778","596.4837102942778","black","no","psycho","psycho","psycho","0","uniform","17534","708.3629999979166","0.04039939546012984","1","undefined","1","left","0","67","67","67","67","68","67","NA","67","0","67","0","0","0","67","0","67","67","67","6","67","67","67","Tue Nov 30 16:08:29 2021","310","Loosely based on Logan (1984) Journal of Experimental Psychology: Human Perception and Performance","1","yes","StopSignalTask.osexp","C:\Users\user\Documents\GitHub\StopTaskBCN","no","mono","no","18","no","white","no","yes","768","psycho","67","67","C:/Users/user/Documents/GitHub/StopTaskBCN/subject-4.csv","psycho","Lentiform Loewenfeld","3.3.9","0","left","NA","right","left","NA","694.4677000028605","NA","11572.098099997675","694.4677000028605","NA","2","psycho","1024","2","48000","-16","experiment","","0","4","even","left","2","15029.506700000638","126373.92919999911","169824.1894999992","169652.8399000017","NA","NA","NA","NA","NA","NA","169690.82960000014","15029.538200000388","3420.077800001309","NA","168590.8883000011","3456.5164000014192","168957.56379999875","170712.69830000165","168591.14989999944","163124.14780000108","168957.51319999908","168546.1389000011","Stop-Signal Task","67","40560.89230001089","68","yes","1024"
"1","10","131","255","98.55072463768116","98.55072463768116","593.7564521740621","593.7564521740621","black","no","psycho","psycho","psycho","0","uniform","10302","428.9922999996634","0.04164165210635443","1","undefined","1","right","0","68","68","68","68","69","68","NA","68","0","68","0","0","0","68","0","68","68","68","6","68","68","68","Tue Nov 30 16:08:29 2021","338","Loosely based on Logan (1984) Journal of Experimental Psychology: Human Perception and Performance","0","yes","StopSignalTask.osexp","C:\Users\user\Documents\GitHub\StopTaskBCN","no","mono","no","18","no","white","no","yes","768","psycho","68","68","C:/Users/user/Documents/GitHub/StopTaskBCN/subject-4.csv","psycho","Lentiform Loewenfeld","3.3.9","0","right","NA","right","right","NA","408.3028999993985","NA","11572.098099997675","408.3028999993985","NA","2","psycho","1024","2","48000","-16","experiment","","0","4","even","right","8","15029.506700000638","126373.92919999911","171890.8588000013","171717.52919999926","NA","NA","NA","NA","NA","NA","171757.51070000115","15029.538200000388","3420.077800001309","NA","170924.19789999985","3456.5164000014192","171307.7114000007","172796.51190000004","170924.26580000028","163124.14780000108","171307.51320000127","170885.08260000162","Stop-Signal Task","68","40969.19520001029","69","yes","1024"
"1","10","131","255","98.57142857142857","98.57142857142857","591.5068900001643","591.5068900001643","black","no","psycho","psycho","psycho","0","uniform","10973","457.3917999987316","0.04168338649400634","1","undefined","1","right","0","69","69","69","69","70","69","NA","69","0","69","0","0","0","69","0","69","69","69","6","69","69","69","Tue Nov 30 16:08:29 2021","348","Loosely based on Logan (1984) Journal of Experimental Psychology: Human Perception and Performance","0","yes","StopSignalTask.osexp","C:\Users\user\Documents\GitHub\StopTaskBCN","no","mono","no","18","no","white","no","yes","768","psycho","69","69","C:/Users/user/Documents/GitHub/StopTaskBCN/subject-4.csv","psycho","Lentiform Loewenfeld","3.3.9","0","right","NA","right","right","NA","436.2871000012092","NA","11572.098099997675","436.2871000012092","NA","2","psycho","1024","2","48000","-16","experiment","","0","4","even","right","8","15029.506700000638","126373.92919999911","174024.18749999924","173844.84639999937","NA","NA","NA","NA","NA","NA","173891.23670000117","15029.538200000388","3420.077800001309","NA","173007.54270000107","3456.5164000014192","173407.7357999995","174924.6263999994","173007.7573999988","163124.14780000108","173407.52480000083","172960.57930000097","Stop-Signal Task","69","41405.4823000115","70","yes","1024"
"1","10","131","255","98.59154929577464","98.59154929577464","590.146445070607","590.146445070607","black","no","psycho","psycho","psycho","0","uniform","12323","519.1780000022845","0.04213081230238453","1","undefined","1","right","0","70","70","70","70","71","70","NA","70","0","70","0","0","0","70","0","70","70","70","6","70","70","70","Tue Nov 30 16:08:29 2021","347","Loosely based on Logan (1984) Journal of Experimental Psychology: Human Perception and Performance","0","yes","StopSignalTask.osexp","C:\Users\user\Documents\GitHub\StopTaskBCN","no","mono","no","18","no","white","no","yes","768","psycho","70","70","C:/Users/user/Documents/GitHub/StopTaskBCN/subject-4.csv","psycho","Lentiform Loewenfeld","3.3.9","0","right","NA","right","right","NA","494.915300001594","NA","11572.098099997675","494.915300001594","NA","2","psycho","1024","2","48000","-16","experiment","","0","4","even","right","8","15029.506700000638","126373.92919999911","176207.54659999875","176036.8574999993","NA","NA","NA","NA","NA","NA","176074.2261000014","15029.538200000388","3420.077800001309","NA","175140.88650000122","3456.5164000014192","175541.1000999993","177104.48420000102","175141.1009000003","163124.14780000108","175540.8916000015","175090.67380000124","Stop-Signal Task","70","41900.39760001309","71","yes","1024"
"1","10","131","255","98.61111111111111","98.61111111111111","587.8638472224035","587.8638472224035","black","no","psycho","psycho","psycho","0","uniform","10711","436.45960000139894","0.04074872560931742","1","undefined","1","right","0","71","71","71","71","72","71","NA","71","0","71","0","0","0","71","0","71","71","71","6","71","71","71","Tue Nov 30 16:08:29 2021","303","Loosely based on Logan (1984) Journal of Experimental Psychology: Human Perception and Performance","0","yes","StopSignalTask.osexp","C:\Users\user\Documents\GitHub\StopTaskBCN","no","mono","no","18","no","white","no","yes","768","psycho","71","71","C:/Users/user/Documents/GitHub/StopTaskBCN/subject-4.csv","psycho","Lentiform Loewenfeld","3.3.9","0","right","NA","right","right","NA","425.79939999995986","NA","11572.098099997675","425.79939999995986","NA","2","psycho","1024","2","48000","-16","experiment","","0","4","even","right","8","15029.506700000638","126373.92919999911","178274.23120000094","178100.87239999848","NA","NA","NA","NA","NA","NA","178140.90170000054","15029.538200000388","3420.077800001309","NA","177340.95259999958","3456.5164000014192","177674.26559999876","179171.7510999988","177341.23209999962","163124.14780000108","177674.20819999825","177286.72659999938","Stop-Signal Task","71","42326.19700001305","72","yes","1024"
"1","10","131","255","98.63013698630137","98.63013698630137","585.1318123289412","585.1318123289412","black","no","psycho","psycho","psycho","0","uniform","9828","403.1729999987874","0.041022893772770394","1","undefined","1","right","0","72","72","72","72","73","72","NA","72","0","72","0","0","0","72","0","72","72","72","6","72","72","72","Tue Nov 30 16:08:29 2021","378","Loosely based on Logan (1984) Journal of Experimental Psychology: Human Perception and Performance","0","yes","StopSignalTask.osexp","C:\Users\user\Documents\GitHub\StopTaskBCN","no","mono","no","18","no","white","no","yes","768","psycho","72","72","C:/Users/user/Documents/GitHub/StopTaskBCN/subject-4.csv","psycho","Lentiform Loewenfeld","3.3.9","0","right","NA","right","right","NA","388.42529999965336","NA","11572.098099997675","388.42529999965336","NA","2","psycho","1024","2","48000","-16","experiment","","0","4","even","right","8","15029.506700000638","126373.92919999911","180374.24190000092","180196.8597999985","NA","NA","NA","NA","NA","NA","180240.8987000017","15029.538200000388","3420.077800001309","NA","179390.9191999992","3456.5164000014192","179807.6026000017","181277.4232999982","179391.13599999837","163124.14780000108","179807.54829999933","179346.8357999991","Stop-Signal Task","72","42714.62230001271","73","yes","1024"
"1","10","131","255","98.64864864864865","98.64864864864865","583.0560472974892","583.0560472974892","black","no","psycho","psycho","psycho","0","uniform","10800","457.4300999993284","0.0423546388888267","1","undefined","1","right","0","73","73","73","73","74","73","NA","73","0","73","0","0","0","73","0","73","73","73","6","73","73","73","Tue Nov 30 16:08:29 2021","345","Loosely based on Logan (1984) Journal of Experimental Psychology: Human Perception and Performance","0","yes","StopSignalTask.osexp","C:\Users\user\Documents\GitHub\StopTaskBCN","no","mono","no","18","no","white","no","yes","768","psycho","73","73","C:/Users/user/Documents/GitHub/StopTaskBCN/subject-4.csv","psycho","Lentiform Loewenfeld","3.3.9","0","right","NA","right","right","NA","431.525200001488","NA","11572.098099997675","431.525200001488","NA","2","psycho","1024","2","48000","-16","experiment","","0","4","even","right","8","15029.506700000638","126373.92919999911","182524.25080000103","182356.8344000014","NA","NA","NA","NA","NA","NA","182390.89969999986","15029.538200000388","3420.077800001309","NA","181524.30630000163","3456.5164000014192","181924.4538999992","183422.9168999991","181524.56040000106","163124.14780000108","181924.24929999834","181471.86679999868","Stop-Signal Task","73","43146.147500014195","74","yes","1024"
"1","10","133","255","98.66666666666667","98.66666666666667","582.033144000161","582.033144000161","black","no","psycho","psycho","psycho","0","uniform","12600","518.4421000012662","0.04114619841279891","1","undefined","1","left","0","74","74","74","74","75","74","NA","74","0","74","0","0","0","74","0","74","74","74","6","74","74","74","Tue Nov 30 16:08:29 2021","384","Loosely based on Logan (1984) Journal of Experimental Psychology: Human Perception and Performance","1","yes","StopSignalTask.osexp","C:\Users\user\Documents\GitHub\StopTaskBCN","no","mono","no","18","no","white","no","yes","768","psycho","74","74","C:/Users/user/Documents/GitHub/StopTaskBCN/subject-4.csv","psycho","Lentiform Loewenfeld","3.3.9","0","left","NA","right","left","NA","506.3382999978785","NA","11572.098099997675","506.3382999978785","NA","2","psycho","1024","2","48000","-16","experiment","","0","4","even","left","2","15029.506700000638","126373.92919999911","184740.97139999867","184564.83070000104","NA","NA","NA","NA","NA","NA","184607.5849000008","15029.538200000388","3420.077800001309","NA","183640.9762000003","3456.5164000014192","184057.65360000078","185647.49070000107","183641.05550000022","163124.14780000108","184057.59879999823","183604.5621000012","Stop-Signal Task","74","43652.48580001207","75","yes","1024"
"1","10","131","255","98.6842105263158","98.6842105263158","579.6408644738748","579.6408644738748","black","no","psycho","psycho","psycho","0","uniform","10029","423.5004999973171","0.042227589988764296","1","undefined","1","right","0","75","75","75","75","76","75","NA","75","0","75","0","0","0","75","0","75","75","75","6","75","75","75","Tue Nov 30 16:08:29 2021","381","Loosely based on Logan (1984) Journal of Experimental Psychology: Human Perception and Performance","0","yes","StopSignalTask.osexp","C:\Users\user\Documents\GitHub\StopTaskBCN","no","mono","no","18","no","white","no","yes","768","psycho","75","75","C:/Users/user/Documents/GitHub/StopTaskBCN/subject-4.csv","psycho","Lentiform Loewenfeld","3.3.9","0","right","NA","right","right","NA","400.21990000241203","NA","11572.098099997675","400.21990000241203","NA","2","psycho","1024","2","48000","-16","experiment","","0","4","even","right","8","15029.506700000638","126373.92919999911","186874.29809999958","186708.89499999976","NA","NA","NA","NA","NA","NA","186741.00460000045","15029.538200000388","3420.077800001309","NA","185874.28530000034","3456.5164000014192","186307.83209999936","187780.78050000113","185874.50620000163","163124.14780000108","186307.62669999967","185823.98309999917","Stop-Signal Task","75","44052.705700014485","76","yes","1024"
